sub,trial,time,numtargs,size,targchar,targcol,stim,resp,corr,rt1,rt2
30m,1,48560,1,10,O,green,OCQoCQoCQo,1,1,765,431
30m,2,50643,0,10,O,green,QoCoQCQoCQ,0,1,47803,2488
30m,3,101828,1,10,O,green,OCoQoQCQoC,1,1,818,535
30m,4,104072,0,10,O,green,QoCoQCoQCQ,0,1,922,508
30m,5,106393,0,10,O,white,CQoCQoCQoC,0,1,1086,1230
30m,6,109597,0,10,O,white,CQoQoCQCoC,0,1,2509,571
30m,7,113584,1,10,O,green,OoQCoCQCoQ,1,1,1073,292
30m,8,115846,1,10,O,green,OCQoQCoQCo,1,1,991,495
30m,9,118223,0,10,O,white,QoCQoCoQCQ,0,1,1627,444
30m,10,121180,0,10,O,white,oCQCoQCoQo,0,1,1858,764
30m,11,124712,1,10,O,white,OQoCoQCoQC,1,1,1723,232
30m,12,127585,0,10,O,green,oQCQCoCoQo,0,1,2032,602
30m,13,131117,0,10,O,white,oCQoQCQoCQ,0,1,1384,483
30m,14,133871,1,10,O,green,OCQoQCoCoQ,1,1,1035,265
30m,15,136054,1,10,O,green,OoCQCQoCoQ,1,1,1086,1549
30m,16,139636,1,10,O,green,OoCQCQoQCo,1,1,835,511
30m,17,141873,0,10,O,green,CoQCQoQCoQ,0,1,738,524
30m,18,144032,1,10,O,green,OCoQCoQCQo,1,1,763,395
30m,19,146077,0,10,O,white,oCQoQCQoCQ,0,1,1726,797
30m,20,149507,0,10,O,white,oCQoCQCoQC,0,1,2074,504
30m,21,153005,0,10,O,green,QCoQCoCQoC,0,1,1138,1116
30m,22,156155,1,10,O,white,OoQCQCoQCo,1,1,1196,288
30m,23,158559,0,10,O,green,QoCoQCQoCQ,0,1,771,509
30m,24,160737,1,10,O,white,OCQoQCoQCo,1,1,1432,244
30m,25,163305,1,10,O,white,OQCoQCoQoC,0,1,1421,446
30m,26,166057,1,10,O,white,OoCQCoQCoQ,1,1,1427,380
30m,27,168770,1,10,O,white,OoQCoQCQCo,1,1,2406,1132
30m,28,173200,0,10,O,green,QCoCQoQoCo,0,1,3163,519
30m,29,177793,0,10,O,white,QCoCQoCQoQ,0,1,2850,541
30m,30,182095,1,10,O,white,OoQCoQCoCQ,1,1,1017,415
30m,31,187856,0,10,O,green,CQoQCoQoCQ,0,1,889,706
30m,32,190393,1,10,O,white,OoCQoCQoCQ,1,1,1030,551
30m,33,192882,0,10,O,green,oQCQCoCoQC,0,1,1390,477
30m,34,195643,0,10,O,green,oQCQoCQCoC,0,1,1591,554
30m,35,198736,0,10,O,white,QCoQoCoQCQ,0,1,1698,707
30m,36,202036,1,10,O,green,OCoQCoQCoQ,1,1,767,1112
30m,37,204820,1,10,O,green,OCQoQoCQCo,1,1,1985,1618
30m,38,209315,1,10,O,white,OQoCoCQCoQ,0,1,2055,430
30m,39,212710,0,10,O,white,oQCoQCoQCQ,0,1,2449,512
30m,40,216580,1,10,O,white,OoCQoCQoCQ,1,1,4033,536
30m,1,21795,0,10,O,green,CoQoQCQoCo,0,1,917,786
30m,2,24388,1,10,O,white,OQoCoCQoCQ,1,1,836,491
30m,3,26567,1,10,O,white,OQCoQoCQoC,1,1,1140,670
30m,4,29248,0,10,O,white,oCQoCQCQoC,0,1,2184,1141
30m,5,33462,1,10,O,green,OQCoQoCoQC,1,1,802,477
30m,6,35647,0,10,O,white,oQCQoCQCoC,0,1,3242,532
30m,7,40309,0,10,O,white,oCQCoQoQCQ,0,1,1815,530
30m,8,43537,0,10,O,white,oCQCoQoCQC,0,1,2968,615
30m,9,48056,0,10,O,green,CQoQCoQoCo,0,1,1014,746
30m,10,50723,0,10,O,white,QoCoQCoQCo,0,1,1980,1197
30m,11,54788,0,10,O,green,oCQCoQoCQo,0,1,1122,2523
30m,12,59354,1,10,O,green,OCQoQCoCQo,1,1,824,900
30m,13,61965,1,10,O,white,OoCQoQCoQC,1,1,1400,426
30m,14,64685,1,10,O,white,OCoQCQoCoQ,1,1,1165,282
30m,15,67054,1,10,O,white,OQoCoQCQoC,1,1,1627,364
30m,16,69967,0,10,O,green,oQCoQCoQCo,0,1,1223,1118
30m,17,73216,1,10,O,white,OQCoCoQCQo,1,1,2058,2365
30m,18,78552,0,10,O,white,oCQCoQCQoC,0,1,1372,857
30m,19,81670,1,10,O,white,OQoCoCQCoQ,1,1,1011,438
30m,20,84037,0,10,O,green,QoCoQCQCoC,0,1,930,687
30m,21,86586,1,10,O,green,OQCoCoQCoQ,1,1,809,498
30m,22,88797,1,10,O,green,OCoQCoQCQo,1,1,775,398
30m,23,90870,1,10,O,green,OCQoCQoQCo,1,1,801,2573
30m,24,95147,1,10,O,white,OCoQCoQoCQ,1,1,771,301
30m,25,97123,0,10,O,white,oQCoCQoCQC,0,1,1827,1789
30m,26,101647,1,10,O,white,OoCQoCQoQC,1,1,840,253
30m,27,103661,1,10,O,green,OoCQCoQoCQ,1,1,824,181
30m,28,105572,1,10,O,green,OQCoQCoQCo,1,1,929,190
30m,29,107572,0,10,O,green,CQoQCoQoCQ,0,1,1127,507
30m,30,110107,0,10,O,green,QCoCQoCoQo,0,1,875,630
30m,31,116102,0,10,O,green,QCoQoCQCoC,0,1,1032,866
30m,32,118952,1,10,O,green,OoQCQoCQCo,1,1,749,1858
30m,33,122466,1,10,O,white,OCQoCQoCQo,1,1,1799,297
30m,34,125449,0,10,O,white,oCQoCQoCQC,0,1,1657,859
30m,35,128853,0,10,O,green,CQoQCoCQoQ,0,1,915,762
30m,36,131472,1,10,O,green,OCQoQCoQoC,1,1,879,263
30m,37,133520,0,10,O,white,oQCQoCoCQo,0,1,2826,963
30m,38,138227,1,10,O,green,OCQoQCoQoC,1,1,735,410
30m,39,140254,0,10,O,green,QCoCQoQCoC,0,1,1029,498
30m,40,142690,0,10,O,white,QoCQoCoQCo,0,1,1917,754
30m,1,13810,0,10,O,white,CoQCoQoCQC,0,1,2411,1325
30m,2,18455,0,10,O,green,oQCQoCQoCo,0,1,838,631
30m,3,20829,0,10,O,green,CQoQCoCoQC,0,1,1159,784
30m,4,23660,1,10,O,green,OQCoQCoCQo,1,1,743,416
30m,5,25754,0,10,O,green,CQoQCoCoQo,0,1,958,624
30m,6,28261,0,10,O,white,QCoQCoQCoQ,0,1,2029,742
30m,7,31954,0,10,O,green,oQCQCoCoQC,0,1,1475,1301
30m,8,35622,0,10,O,green,CoQoQCQoCQ,0,1,756,838
30m,9,38106,1,10,O,white,OoCQoCQCQo,0,1,1303,705
30m,10,41025,0,10,O,white,oCQCoQCoQo,0,1,1842,706
30m,11,44492,1,10,O,white,OQoCQoCoQC,1,1,1405,790
30m,12,47582,0,10,O,white,QoCoQCQCoQ,0,1,2215,475
30m,13,51181,1,10,O,white,OCQoCoQoCQ,1,1,2064,643
30m,14,54786,0,10,O,green,CQoQCoQoCo,0,1,744,537
30m,15,56957,1,10,O,green,OQCoQCoQCo,1,1,1357,634
30m,16,59856,1,10,O,green,OoQCoQCQoC,1,1,823,653
30m,17,62266,0,10,O,white,CoQoCQCoQC,0,1,1824,581
30m,18,65570,1,10,O,green,OQCoQoCoQC,1,1,903,382
30m,19,67758,0,10,O,white,CoQCQoCoQo,0,1,1639,727
30m,20,71016,1,10,O,white,OoCQoQCoCQ,1,1,845,410
30m,21,73180,0,10,O,green,oQCQCoCQoC,0,1,1946,649
30m,22,76668,1,10,O,green,OCoQCoQoCQ,1,1,791,480
30m,23,78848,1,10,O,green,OCQoCQoQCo,1,1,756,496
30m,24,81040,1,10,O,green,OoCQCoQoQC,1,1,1349,1197
30m,25,84494,0,10,O,white,QCoCoQCQoC,0,1,3183,547
30m,26,89132,0,10,O,green,QCoQoCQCoQ,0,1,1396,757
30m,27,92166,0,10,O,white,oQCoQCoQCo,0,1,2156,743
30m,28,96002,1,10,O,green,OCoQCoQCoQ,1,1,729,402
30m,29,98012,1,10,O,white,OoCQoCQoCQ,1,1,1021,392
30m,30,100317,1,10,O,white,OQoCoCQoCQ,1,1,1388,451
30m,31,106729,0,10,O,green,oQCoQCQCoQ,0,1,1026,501
30m,32,109201,1,10,O,white,OQCoQoCoCQ,1,1,1643,253
30m,33,111973,1,10,O,white,OCQoQCoCQo,1,1,1172,450
30m,34,114484,0,10,O,white,CoQCoQCoQo,0,1,1827,574
30m,35,117791,1,10,O,green,OQCoCQoCQo,1,1,918,366
30m,36,119976,1,10,O,green,OoQCoQCQoC,1,1,728,406
30m,37,122045,1,10,O,white,OQoCQoCQoC,0,1,245,1031
30m,38,124233,0,10,O,green,QoCQCoQoCQ,0,1,1334,1161
30m,39,127618,1,10,O,white,OCoQoCQCQo,1,1,1900,1677
30m,40,132089,0,10,O,white,CQoCoQoCQC,0,1,2554,588
30m,1,7792,0,10,O,green,oQCoCQoQCo,0,1,31939,612
30m,2,41243,1,10,O,white,OQoCQoCoQC,1,1,1418,533
30m,3,44128,0,10,O,white,CoQCoQoCQo,0,1,1533,621
30m,4,47175,0,10,O,white,CoQCQoCQoQ,0,1,1882,536
30m,5,50485,0,10,O,white,oQCoQCoCQo,0,1,1539,1126
30m,6,54043,1,10,O,green,OoQCoQCQoC,1,1,795,414
30m,7,56146,1,10,O,green,OQCoQoCoCQ,1,1,874,433
30m,8,58349,1,10,O,green,OCQoQCoCQo,1,1,829,510
30m,9,60583,0,10,O,green,QCoCoQoCQC,0,1,940,473
30m,10,62939,1,10,O,white,OoQCoCQCQo,1,1,1132,466
30m,11,65445,1,10,O,green,OCoQoCQCQo,1,1,858,398
30m,12,67603,0,10,O,white,CoQCoQCoQC,0,1,1989,558
30m,13,71034,1,10,O,white,OCoQCoQCQo,1,1,1372,922
30m,14,74248,0,10,O,green,CoQCQoCQoQ,0,1,875,658
30m,15,76698,1,10,O,white,OoQCoCQCQo,1,1,1356,437
30m,16,79395,0,10,O,green,CoQCQoQoCo,0,1,706,728
30m,17,81747,1,10,O,white,OoCQoCQCoQ,1,1,997,1132
30m,18,84765,1,10,O,white,OQoCoQCoCQ,0,1,903,714
30m,19,87286,1,10,O,green,OQoCQoCQCo,1,1,700,275
30m,20,89154,1,10,O,white,OQCoCQoCoQ,1,1,1228,379
30m,21,91647,0,10,O,green,CQoCQoQCoQ,0,1,1360,437
30m,22,94365,0,10,O,green,CoQoCQCoQo,0,1,1428,787
30m,23,97486,0,10,O,white,oQCoQCoQCQ,0,1,1794,574
30m,24,100761,1,10,O,green,OoQCQoCQoC,1,1,725,426
30m,25,102866,1,10,O,green,OCQoCQoCQo,1,1,809,496
30m,26,105058,1,10,O,white,OQCoQCoCQo,1,1,1276,382
30m,27,107628,1,10,O,green,OoCQCQoQCo,1,1,827,474
30m,28,109821,0,10,O,white,CQoQoCoCQo,0,1,1677,654
30m,29,113033,0,10,O,white,oCQCQoCQoC,0,1,1992,473
30m,30,116388,0,10,O,green,QCoQCoQCoQ,0,1,701,779
30m,31,122440,1,10,O,green,OCoQCoQCQo,1,1,750,519
30m,32,124640,0,10,O,green,oCQCoQoCQC,0,1,838,693
30m,33,127096,1,10,O,green,OCoQoCQCoQ,1,1,728,426
30m,34,129175,1,10,O,white,OoQCoCQCoQ,1,1,1454,278
30m,35,131797,0,10,O,green,oQCoQCoQCo,0,1,1040,699
30m,36,134422,0,10,O,white,CoQoCQCoQC,0,1,1463,798
30m,37,137572,0,10,O,green,oQCQCoCoQC,0,1,673,476
30m,38,139633,0,10,O,white,CQoCQoCQoQ,0,1,1762,589
30m,39,142876,0,10,O,white,QCoCQoQCoQ,0,1,1871,523
30m,40,146190,1,10,O,white,OoQCQCoQCo,1,1,787,384
