sub,trial,time,numtargs,size,targchar,targcol,stim,resp,corr,rt1,rt2
27w,1,16856,1,10,O,white,OoCQoCQoCQ,0,1,2693,3769
27w,2,24210,0,10,O,white,CQoCQoQCoC,0,1,2882,567
27w,3,28538,0,10,O,white,CQoQCoCoQC,0,1,2267,608
27w,4,32315,0,10,O,white,CoQoQCoQCQ,0,1,3413,831
27w,5,37447,1,10,O,white,OQoCoCQoQC,1,1,1349,366
27w,6,40095,0,10,O,white,oQCQoCoQCQ,0,1,2817,851
27w,7,44677,0,10,O,white,oCQoQCoQCo,0,1,5578,1009
27w,8,52150,1,10,O,white,OoQCoQCoCQ,1,1,898,600
27w,9,54540,0,10,O,white,oQCoCQCoQo,0,1,3368,970
27w,10,59783,1,10,O,white,OCoQCoQCoQ,1,1,2091,561
27w,11,63333,0,10,O,white,oCQCQoCoQC,0,1,4105,930
27w,12,69261,0,10,O,white,QCoCQoCQoC,0,1,2856,584
27w,13,73602,1,10,O,white,OCQoCQoQCo,1,1,2165,620
27w,14,77314,1,10,O,white,OoQCQoCoQC,1,1,2502,1215
27w,15,81938,1,10,O,white,OQoCQoCQCo,1,1,2639,2556
27w,16,88053,1,10,O,white,OoCQoCQoCQ,1,1,2604,563
27w,17,92105,0,10,O,white,QoCQoCoCQC,0,1,4618,509
27w,18,98111,1,10,O,white,OCoQCQoCQo,1,1,2325,553
27w,19,101892,0,10,O,white,QCoQCoCQoC,0,1,3906,818
27w,20,107523,1,10,O,white,OCQoCoQoCQ,1,1,1487,573
27w,21,110505,0,10,O,white,CoQoCQoCQo,0,1,3111,692
27w,22,115212,1,10,O,white,OoCQCQoCQo,1,1,3394,500
27w,23,120014,0,10,O,white,QoCoCQCoQC,0,1,3445,964
27w,24,125339,1,10,O,white,OoCQoCQCoQ,1,1,1037,1393
27w,25,128683,0,10,O,white,oQCQoCQoCQ,0,1,3939,668
27w,26,134206,0,10,O,white,CoQCQoQCoQ,0,1,3170,843
27w,27,139111,1,10,O,white,OoQCoQCQCo,1,1,1896,645
27w,28,142535,1,10,O,white,OCoQCQoQCo,1,1,2259,569
27w,29,146283,0,10,O,white,CQoCoQCQoC,0,1,2694,821
27w,30,150691,0,10,O,white,oQCoQCQoCQ,0,1,2126,807
27w,31,157085,1,10,O,white,OQoCoQCoQC,1,1,1575,626
27w,32,160202,0,10,O,white,CoQoQCQoCo,0,1,2493,604
27w,33,164196,1,10,O,white,OoCQoCQoCQ,1,1,2505,729
27w,34,168337,1,10,O,white,OCQoCQoQoC,1,1,1223,520
27w,35,170972,0,10,O,white,CoQoCQCoQo,0,1,2613,597
27w,36,175100,0,10,O,white,QoCoQCQoCQ,0,1,2488,622
27w,37,179143,1,10,O,white,OoCQoCQCoQ,1,1,1955,535
27w,38,182522,0,10,O,white,QoCQoCQoCo,8,0,3027,1316
27w,39,187772,1,10,O,white,OCoQoCQCoQ,1,1,1167,538
27w,40,190383,1,10,O,white,OoCQoCQCQo,0,1,2461,996
27w,1,21491,1,10,O,white,OQoCoCQCoQ,0,1,2516,718
27w,2,25635,1,10,O,white,OoCQoCQoQC,1,1,1167,878
27w,3,28597,1,10,O,white,OoQCQoCQCo,1,1,1219,683
27w,4,31391,1,10,O,white,OQoCoCQCoQ,1,1,1047,544
27w,5,33933,0,10,O,white,CoQoCQoCQo,0,1,2516,707
27w,6,38085,1,10,O,white,OCQoCQoQCo,1,1,1023,2765
27w,7,42766,1,10,O,white,OQCoQCoQCo,1,1,5411,507
27w,8,49593,0,10,O,white,QoCQCoQCoC,0,1,4161,788
27w,9,55412,0,10,O,white,QCoQCoCQoQ,0,1,3404,1243
27w,10,60963,1,10,O,white,OQoCQoCQoC,1,1,2818,329
27w,11,65013,1,10,O,white,OoQCQoCQCo,1,1,4384,404
27w,12,70709,0,10,O,white,CoQoCQCoQC,0,1,3725,534
27w,13,75894,0,10,O,white,oCQoCQCQoC,0,1,2813,493
27w,14,80140,0,10,O,white,QCoQCoCoQC,0,1,1985,580
27w,15,83599,1,10,O,white,OoCQCQoCQo,1,1,920,463
27w,16,85898,0,10,O,white,CoQoQCQoCQ,0,1,2634,689
27w,17,90128,0,10,O,white,CQoCQoQCoQ,0,1,2225,610
27w,18,93882,1,10,O,white,OCoQCQoCoQ,1,1,2460,712
27w,19,97950,1,10,O,white,OCoQoCQoCQ,1,1,2427,1010
27w,20,102305,1,10,O,white,OQoCQoCoQC,1,1,2814,448
27w,21,106476,0,10,O,white,oCQoCQCoQC,0,1,4722,605
27w,22,112686,0,10,O,white,oCQCoQCoQC,0,1,5216,600
27w,23,119382,1,10,O,white,OCoQCQoQCo,0,1,2600,654
27w,24,123518,1,10,O,white,OCoQCQoCoQ,1,1,3023,566
27w,25,127997,1,10,O,white,OoCQoQCQCo,1,1,7015,484
27w,26,136380,1,10,O,white,OQCoQCoQoC,1,1,5668,1733
27w,27,144724,0,10,O,white,CoQoCQoCQC,0,1,8642,1026
27w,28,155317,1,10,O,white,OQoCQoCQCo,1,1,862,545
27w,29,157611,0,10,O,white,oCQoCQoCQC,0,1,970,584
27w,30,160097,0,10,O,white,oCQCQoCQoC,0,1,874,787
27w,31,166449,0,10,O,white,CoQCoQoQCQ,0,1,1473,614
27w,32,169446,0,10,O,white,QoCoCQoQCQ,0,1,3239,548
27w,33,174124,1,10,O,white,OCQoCQoQCo,1,1,3254,382
27w,34,178667,0,10,O,white,QCoQCoQCoC,0,1,4148,692
27w,35,184392,0,10,O,white,oCQCQoQCoC,0,1,3578,1089
27w,36,189974,0,10,O,white,oQCoCQoQCo,0,1,3940,469
27w,37,195287,0,10,O,white,oQCQoCoCQC,0,1,1866,517
27w,38,198559,1,10,O,white,OCoQCoQCoQ,1,1,1603,508
27w,39,201577,1,10,O,white,OCQoCQoCoQ,0,1,873,1153
27w,40,204494,0,10,O,white,oCQoCQoCQC,0,1,1881,787
27w,1,16606,0,10,O,white,CoQoQCQoCQ,0,1,100,1406
27w,2,18996,0,10,O,white,oCQoCQCQoQ,0,1,3149,474
27w,3,23517,1,10,O,white,OQCoCQoQCo,1,1,2541,513
27w,4,27451,0,10,O,white,oQCoCQoQCQ,0,1,2525,637
27w,5,31506,1,10,O,white,OQoCQoCoQC,1,1,6155,656
27w,6,39210,0,10,O,white,CoQoCQCoQC,0,1,2157,1305
27w,7,43568,1,10,O,white,OoCQoCQCoQ,1,1,913,506
27w,8,45957,0,10,O,white,CoQCQoCQoC,0,1,1884,862
27w,9,49625,1,10,O,white,OCoQoCQoCQ,1,1,1743,714
27w,10,53002,1,10,O,white,OQoCoCQoCQ,1,1,1255,502
27w,11,55676,0,10,O,white,oCQoQCQoCo,0,1,297,1061
27w,12,57958,1,10,O,white,OCoQoQCQoC,1,1,1500,539
27w,13,60905,0,10,O,white,CoQCoQoCQC,0,1,3062,497
27w,14,65366,1,10,O,white,OQoCQCoCoQ,0,1,2662,761
27w,15,69694,0,10,O,white,CoQoQCQoCo,0,1,1711,719
27w,16,73045,1,10,O,white,OoQCQCoQoC,1,1,3337,355
27w,17,77637,0,10,O,white,QCoCoQoCQC,0,1,1476,526
27w,18,80567,0,10,O,white,CoQCoQoCQC,0,1,2960,785
27w,19,85235,1,10,O,white,OoQCQoCoQC,0,1,1980,883
27w,20,89020,1,10,O,white,OCQoQoCoCQ,1,1,1710,563
27w,21,92202,0,10,O,white,CoQCoQoCQC,0,1,1810,608
27w,22,95517,0,10,O,white,CoQCoQoQCo,0,1,2050,626
27w,23,99087,1,10,O,white,OCoQoCQCQo,1,1,1699,457
27w,24,102178,0,10,O,white,oQCoCQoQCQ,0,1,2015,744
27w,25,105851,1,10,O,white,OQoCoCQoCQ,1,1,2331,411
27w,26,109499,0,10,O,white,QoCoCQCoQo,0,1,2472,604
27w,27,113466,0,10,O,white,QoCQoCQoCQ,10,0,2721,1200
27w,28,118287,1,10,O,white,OCQoCoQoQC,1,1,3286,529
27w,29,122998,1,10,O,white,OQoCQoCoQC,1,1,1102,1600
27w,30,126597,1,10,O,white,OQCoCoQCoQ,0,1,3431,597
27w,31,135083,1,10,O,white,OQCoQCoQCo,1,1,1057,616
27w,32,137692,0,10,O,white,oQCoCQoCQo,0,1,1129,715
27w,33,140431,1,10,O,white,OoQCoQCQoC,1,1,1742,502
27w,34,143580,0,10,O,white,CQoCoQoCQC,0,1,2326,591
27w,35,147417,0,10,O,white,oQCoQCoCQC,0,1,1731,745
27w,36,150784,1,10,O,white,OCQoCoQoQC,1,1,736,470
27w,37,152908,1,10,O,white,OoCQoQCoQC,1,1,1241,550
27w,38,155625,1,10,O,white,OQCoCQoCoQ,1,1,2324,517
27w,39,159371,0,10,O,white,CoQoCQoQCo,0,1,1548,735
27w,40,162564,0,10,O,white,oCQCQoCQoQ,0,1,1919,637
27w,1,12247,1,10,O,white,OCoQoCQCoQ,0,1,2658,564
27w,2,16347,1,10,O,white,OCoQCoQoCQ,1,1,816,388
27w,3,18443,0,10,O,white,CQoCoQoCQo,0,1,2950,552
27w,4,22826,0,10,O,white,oCQoCQCQoC,0,1,2202,483
27w,5,26403,1,10,O,white,OoCQoCQoQC,1,1,4453,2880
27w,6,34620,1,10,O,white,OQoCoQCoQC,1,1,2179,419
27w,7,38114,1,10,O,white,OoQCQoCoQC,1,1,2825,633
27w,8,42502,0,10,O,white,CoQoQCQoCo,0,1,4120,574
27w,9,48129,1,10,O,white,OoCQCoQoCQ,1,1,2857,345
27w,10,52247,0,10,O,white,CQoQCoCoQo,0,1,2392,479
27w,11,56035,1,10,O,white,OCQoCoQCoQ,1,1,3870,612
27w,12,61409,1,10,O,white,OQoCoQCoQC,1,1,3640,448
27w,13,66441,0,10,O,white,oCQCoQoQCQ,0,1,1882,684
27w,14,69895,0,10,O,white,oQCoCQCoQo,0,1,2634,555
27w,15,73982,0,10,O,white,QoCoQCQoCQ,0,1,2681,687
27w,16,78235,1,10,O,white,OoQCQoCoCQ,0,1,1310,958
27w,17,81420,0,10,O,white,QoCoQCQoCo,0,1,2779,517
27w,18,85612,1,10,O,white,OoCQoCQoQC,1,1,1848,632
27w,19,89013,0,10,O,white,QCoCoQoCQC,0,1,2697,593
27w,20,93249,1,10,O,white,OoQCQoCQoC,1,1,1996,579
27w,21,96735,1,10,O,white,OQCoCQoQCo,1,1,2015,486
27w,22,100132,1,10,O,white,OCQoCQoQCo,1,1,2535,1147
27w,23,104703,0,10,O,white,CQoQCoQCoC,0,1,3084,593
27w,24,109296,0,10,O,white,CQoCQoCoQC,0,1,3565,633
27w,25,114398,1,10,O,white,OQoCoQCoQC,0,1,2284,670
27w,26,118287,1,10,O,white,OCQoCoQCQo,1,1,1829,496
27w,27,121553,1,10,O,white,OQoCQoCoQC,1,1,3244,475
27w,28,126171,0,10,O,white,CoQoCQoCQC,0,1,2443,614
27w,29,130148,1,10,O,white,OCoQCoQCoQ,1,1,2620,1052
27w,30,134729,0,10,O,white,oQCQoCoQCo,0,1,2927,590
27w,31,141722,0,10,O,white,CoQoCQoCQC,0,1,2069,521
27w,32,145226,1,10,O,white,OoQCoQCQoC,1,1,1461,473
27w,33,148050,1,10,O,white,OoQCoQCQoC,1,1,835,391
27w,34,150231,1,10,O,white,OoQCoQCoCQ,1,1,1480,875
27w,35,153483,0,10,O,white,QoCoQCQoCQ,0,1,3715,584
27w,36,158701,0,10,O,white,CQoCQoQoCQ,0,1,1850,545
27w,37,161991,0,10,O,white,oQCQoCoQCQ,0,1,2665,619
27w,38,166170,0,10,O,white,QoCQoCQoCQ,0,1,3579,567
27w,39,171205,0,10,O,white,CQoQCoQCoQ,0,1,1734,500
27w,40,174373,0,10,O,white,CoQCQoQCoC,0,1,2772,551
