sub,trial,time,numtargs,size,targchar,targcol,stim,resp,corr,rt1,rt2
19m,1,19679,0,10,O,white,CQoCQoCoQo,0,1,107382,562
19m,2,128539,0,10,O,white,CQoCQoQCoC,0,1,4109,576
19m,3,134114,1,10,O,white,OoQCQoCoQC,1,1,1256,228
19m,4,136491,1,10,O,green,OCQoQCoQoC,1,1,922,1332
19m,5,139662,1,10,O,white,OCQoCQoCoQ,1,1,1743,426
19m,6,142729,0,10,O,green,CQoCQoQoCQ,0,1,1264,802
19m,7,145707,1,10,O,green,OoCQCoQCoQ,1,1,806,2801
19m,8,150221,1,10,O,green,OoCQCQoQCo,1,1,818,267
19m,9,152216,0,10,O,green,CoQoQCoCQo,0,1,2533,1133
19m,10,156820,0,10,O,white,QCoQoCoQCQ,0,1,5924,859
19m,11,164500,0,10,O,white,CoQCoQCoQC,0,1,5080,2004
19m,12,172480,1,10,O,green,OQoCQoCQCo,1,1,1182,394
19m,13,174950,1,10,O,green,OoQCoQCoCQ,1,1,849,541
19m,14,177227,0,10,O,green,oQCQoCoQCQ,0,1,2843,598
19m,15,181573,1,10,O,white,OCoQoQCoQC,0,1,3089,695
19m,16,186273,1,10,O,white,OCQoQoCoQC,1,1,2029,438
19m,17,189639,0,10,O,white,oCQoQCoQCo,0,1,2173,1158
19m,18,193899,1,10,O,white,OQoCoCQoCQ,1,1,2028,235
19m,19,197060,0,10,O,green,QoCoQCQoCQ,0,1,3452,697
19m,20,202100,1,10,O,white,OQCoQCoCQo,1,1,2483,796
19m,21,206267,0,10,O,green,QCoQoCoQCo,0,1,3210,661
19m,22,211038,1,10,O,white,OQCoQCoQCo,1,1,1425,598
19m,23,213941,1,10,O,white,OCQoQoCQCo,1,1,1020,232
19m,24,216088,0,10,O,white,QCoCQoCoQo,0,1,1270,1030
19m,25,219312,1,10,O,green,OQoCoQCQoC,1,1,1308,1073
19m,26,222582,1,10,O,green,OoQCoQCQoC,1,1,969,256
19m,27,224730,1,10,O,green,OQCoCQoQCo,1,1,1100,1052
19m,28,227832,0,10,O,white,CQoCQoQoCo,0,1,3354,830
19m,29,232945,1,10,O,white,OoCQoCQCQo,1,1,2030,627
19m,30,236499,0,10,O,green,QoCQoCQCoQ,0,1,6870,848
19m,31,250042,0,10,O,green,QoCQoCQoCQ,0,1,1081,937
19m,32,252985,1,10,O,green,OQCoQCoQCo,1,1,1245,420
19m,33,255555,1,10,O,green,OQoCoQCQCo,1,1,932,441
19m,34,257828,0,10,O,white,oQCQoCQoCo,0,1,2554,1028
19m,35,262308,0,10,O,green,CQoQCoQCoC,0,1,3676,607
19m,36,267498,0,10,O,white,CoQCoQoQCQ,0,1,2018,685
19m,37,271116,0,10,O,green,oCQoCQoCQo,0,1,1276,876
19m,38,274155,1,10,O,white,OCoQoCQCoQ,1,1,2060,409
19m,39,277521,0,10,O,green,QoCQCoQoCQ,0,1,1711,796
19m,40,280945,0,10,O,white,CoQoQCoCQC,0,1,1377,558
19m,1,31542,0,10,O,green,QCoQCoQoCQ,0,1,1058,793
19m,2,34287,1,10,O,white,OQoCoQCQoC,1,1,2854,2122
19m,3,40174,1,10,O,white,OoCQoCQoQC,1,1,2158,273
19m,4,43501,1,10,O,green,OCoQoQCoQC,1,1,1651,492
19m,5,46533,0,10,O,green,CoQoQCoCQC,0,1,6139,488
19m,6,54057,1,10,O,white,OCQoQoCoQC,1,1,2374,481
19m,7,57804,0,10,O,green,oQCoQCoCQC,0,1,1202,1037
19m,8,60972,0,10,O,green,oQCQoCoCQo,0,1,1033,828
19m,9,63750,0,10,O,green,QCoCQoCoQo,0,1,720,802
19m,10,66169,0,10,O,white,oQCQoCoQCQ,0,1,4571,620
19m,11,72258,1,10,O,green,OQoCQoCoQC,1,1,1557,266
19m,12,74988,1,10,O,white,OCoQoQCQCo,1,1,2701,274
19m,13,78857,1,10,O,white,OQoCQoCoQC,1,1,1530,577
19m,14,81859,1,10,O,white,OCoQCQoCQo,1,1,1598,288
19m,15,84703,1,10,O,white,OQCoQoCoQC,1,1,1885,489
19m,16,87972,0,10,O,green,oCQCoQoQCQ,0,1,1321,1782
19m,17,91992,0,10,O,green,QCoCQoCQoC,0,1,3209,530
19m,18,96637,1,10,O,white,OQCoQCoQCo,1,1,1771,478
19m,19,99783,0,10,O,green,CQoCQoQCoQ,0,1,978,632
19m,20,102289,1,10,O,green,OQoCQCoQoC,1,1,1306,444
19m,21,104988,1,10,O,white,OoQCoCQoQC,1,1,2554,429
19m,22,108870,0,10,O,white,CQoCoQCoQC,0,1,3656,680
19m,23,114116,1,10,O,green,OCQoCQoCQo,1,1,1246,404
19m,24,116658,0,10,O,white,QCoQCoCQoC,0,1,5828,818
19m,25,124222,0,10,O,white,oQCQoCoQCQ,0,1,3124,591
19m,26,128812,0,10,O,white,oCQCoQCoQC,0,1,3131,500
19m,27,133356,0,10,O,white,oQCoQCoQCo,0,1,2116,689
19m,28,137032,0,10,O,green,QCoQoCoQCo,0,1,1656,540
19m,29,140141,0,10,O,white,oQCQoCoQCQ,0,1,4521,595
19m,30,146150,1,10,O,green,OQoCoQCoQC,1,1,1936,450
19m,31,153293,1,10,O,green,OoQCQCoCQo,1,1,1819,676
19m,32,156773,0,10,O,white,QoCoQCoQCQ,0,1,1801,826
19m,33,160314,1,10,O,green,OCoQoCQoCQ,1,1,1234,3096
19m,34,165559,1,10,O,green,OoQCoQCQCo,1,1,1853,542
19m,35,168855,1,10,O,white,OoCQoQCoQC,1,1,2243,240
19m,36,172262,1,10,O,green,OQCoCoQCoQ,1,1,2186,249
19m,37,175681,0,10,O,white,CoQoCQoCQC,0,1,3385,514
19m,38,180499,0,10,O,white,QCoCQoCQoQ,0,1,2992,519
19m,39,184924,1,10,O,green,OoQCQoCQCo,1,1,2184,1095
19m,40,189114,0,10,O,green,CoQoQCQoCQ,0,1,1830,500
19m,1,28941,0,10,O,white,CoQoCQCoQo,0,1,2898,527
19m,2,33251,0,10,O,green,QCoQCoQCoQ,0,1,41722,487
19m,3,76369,0,10,O,green,oCQoQCoQCQ,0,1,2316,604
19m,4,80189,1,10,O,white,OQCoCoQoCQ,0,1,68828,1446
19m,5,151365,1,10,O,green,OQoCQoCoCQ,1,1,1437,218
19m,6,153938,0,10,O,white,oQCoQCQoCo,0,1,2104,539
19m,7,157480,1,10,O,white,OCQoQCoCQo,1,1,2164,1255
19m,8,161795,1,10,O,white,OoCQCoQoCQ,1,1,2072,166
19m,9,164941,0,10,O,white,oCQCoQCoQC,0,1,3034,465
19m,10,169334,0,10,O,white,CoQCQoCQoC,0,1,2902,526
19m,11,173651,0,10,O,white,CoQCoQoCQC,0,1,1600,663
19m,12,176834,0,10,O,white,CQoQoCQoCo,0,1,2284,487
19m,13,180525,1,10,O,white,OQCoQoCoCQ,1,1,2252,952
19m,14,184625,0,10,O,green,oQCQoCoCQC,0,1,4526,634
19m,15,190657,0,10,O,white,oCQoCQCQoQ,0,1,3441,530
19m,16,195564,0,10,O,green,QCoCoQCoQC,0,1,1829,479
19m,17,198819,1,10,O,white,OoCQCQoQoC,1,1,2680,449
19m,18,202868,0,10,O,white,QCoCQoQoCo,0,1,2834,565
19m,19,207160,0,10,O,green,QoCQCoQCoC,0,1,6071,914
19m,20,215065,1,10,O,green,OQCoCQoQoC,1,1,845,432
19m,21,217263,1,10,O,green,OQCoQCoCQo,1,1,1687,167
19m,22,220013,0,10,O,green,CoQoCQoCQC,0,1,2477,582
19m,23,223956,1,10,O,white,OoCQCoQCoQ,1,1,2698,308
19m,24,227900,1,10,O,white,OQoCQoCQoC,1,1,4564,2272
19m,25,235650,1,10,O,green,OQoCQoCoCQ,1,1,1145,218
19m,26,237894,0,10,O,white,QoCoQCQoCo,0,1,4697,604
19m,27,244129,1,10,O,white,OQCoCQoQoC,1,1,1710,197
19m,28,246945,1,10,O,green,OCoQoCQCoQ,1,1,2216,850
19m,29,250897,1,10,O,green,OCQoQCoCQo,1,1,1426,1070
19m,30,254303,1,10,O,green,OCQoQCoQoC,1,1,1340,458
19m,31,259720,1,10,O,green,OQoCQoCoQC,1,1,1437,428
19m,32,262563,0,10,O,green,QCoQCoCoQo,0,1,3000,531
19m,33,266983,0,10,O,white,oCQoQCoCQC,0,1,2129,1622
19m,34,271627,0,10,O,green,CoQoQCQoCQ,0,1,2054,511
19m,35,275135,0,10,O,green,QoCoCQoCQC,0,1,1578,487
19m,36,278096,1,10,O,green,OoQCQCoQoC,1,1,1183,358
19m,37,280539,1,10,O,white,OCoQCQoCQo,1,1,3174,269
19m,38,284891,0,10,O,green,QCoCoQCoQo,0,1,3771,513
19m,39,290081,1,10,O,green,OoCQCoQCoQ,1,1,1540,243
19m,40,292772,1,10,O,white,OQoCQoCQoC,1,1,1910,172
19m,1,33279,0,10,O,green,oCQoCQoCQo,0,1,1941,512
19m,2,36636,0,10,O,green,oCQoCQoQCQ,0,1,3952,527
19m,3,42015,1,10,O,white,OCQoCQoQCo,0,1,2188,476
19m,4,45587,1,10,O,white,OQoCoQCoQC,1,1,1907,96
19m,5,48495,1,10,O,white,OQCoQCoCQo,1,1,2068,75
19m,6,51531,0,10,O,green,oQCoQCoQCQ,0,1,4251,494
19m,7,57163,0,10,O,green,oCQoCQoQCo,0,1,3923,520
19m,8,62492,0,10,O,green,oQCoQCQoCo,0,1,1193,2551
19m,9,67125,0,10,O,white,QoCQCoQoCo,0,1,2226,439
19m,10,70724,0,10,O,white,CoQCQoQCoQ,0,1,2271,380
19m,11,74294,1,10,O,green,OQoCoQCoQC,1,1,1375,755
19m,12,77335,1,10,O,white,OCoQCoQCoQ,1,1,2672,50
19m,13,80965,1,10,O,white,OCoQoCQoCQ,1,1,3142,910
19m,14,85936,0,10,O,white,oCQoCQoQCo,0,1,2754,787
19m,15,90394,0,10,O,white,CQoQoCQoCo,0,1,2854,456
19m,16,94607,1,10,O,green,OCoQoCQCQo,1,1,1423,576
19m,17,97517,1,10,O,white,OoQCQCoCoQ,1,1,2230,75
19m,18,100759,1,10,O,green,OCQoCoQoQC,1,1,4825,699
19m,19,107163,0,10,O,green,oQCQoCQoCQ,0,1,2252,411
19m,20,110778,0,10,O,green,oQCQoCQoCo,0,1,3276,557
19m,21,115541,0,10,O,green,QoCQoCQCoC,0,1,3560,442
19m,22,120438,0,10,O,green,CQoQoCQoCQ,0,1,901,357
19m,23,122614,1,10,O,green,OQoCQoCQoC,1,1,1969,59
19m,24,125524,1,10,O,white,OQoCQCoQoC,1,1,3988,155
19m,25,130549,0,10,O,white,CoQCoQCQoC,0,1,3003,403
19m,26,134847,1,10,O,white,OQoCoQCQoC,1,1,2212,765
19m,27,138712,0,10,O,green,QCoQCoQCoQ,0,1,1675,354
19m,28,141645,0,10,O,white,CoQCoQCQoQ,0,1,2200,748
19m,29,145482,1,10,O,green,OCQoQCoQoC,1,1,1397,145
19m,30,147947,0,10,O,white,oQCQCoCQoQ,0,1,3526,623
19m,31,157158,1,10,O,green,OCoQCoQCoQ,1,1,781,665
19m,32,159558,1,10,O,green,OQoCQoCQCo,1,1,2940,165
19m,33,163556,1,10,O,green,OCQoQCoCQo,1,1,1530,643
19m,34,166634,1,10,O,green,OQoCoQCoQC,1,1,1121,61
19m,35,168726,1,10,O,white,OQCoCoQCoQ,1,1,2032,39
19m,36,171693,0,10,O,white,CQoCQoQCoQ,0,1,3119,404
19m,37,176125,0,10,O,white,oQCQoCQoCo,0,1,1665,455
19m,38,179183,0,10,O,white,QoCoCQoCQC,0,1,2274,741
19m,39,183116,1,10,O,white,OQoCoQCQCo,1,1,2379,87
19m,40,186494,1,10,O,green,OCQoCQoQCo,1,1,1613,39
