sub,trial,time,numtargs,size,targchar,targcol,stim,resp,corr,rt1,rt2
2223,1,26518,1,10,O,white,OQCoCoQoCQ,1,1,1589,1026
2223,2,30017,1,10,O,white,OQCoQoCoQC,1,1,3384,1772
2223,3,36073,1,10,O,white,OCQoQCoQCo,1,1,3176,409
2223,4,40560,0,10,O,white,oCQCoQCoQo,0,1,3429,560
2223,5,45465,0,10,O,white,QCoQCoQCoC,0,1,2376,574
2223,6,49317,0,10,O,white,oQCoCQCoQo,0,1,2740,1047
2223,7,54004,1,10,O,white,OCQoQCoCoQ,1,1,3012,1272
2223,8,59195,0,10,O,white,oQCoQCQoCQ,0,1,3142,701
2223,9,63961,0,10,O,white,CoQoCQoQCo,0,1,2482,460
2223,10,67824,0,10,O,white,oQCQCoCQoC,0,1,3627,456
2223,11,72796,0,10,O,white,oQCQoCQoCQ,0,1,3529,592
2223,12,77810,0,10,O,white,CoQCoQCoQo,0,1,2216,651
2223,13,81616,1,10,O,white,OCoQoQCQoC,1,1,2526,536
2223,14,85582,1,10,O,white,OoQCQoCQoC,1,1,2433,3950
2223,15,92878,1,10,O,white,OoQCQoCQCo,1,1,2913,709
2223,16,97379,0,10,O,white,QoCoCQoCQC,1,0,2849,3334
2223,17,104483,1,10,O,white,OoCQoCQCoQ,1,1,2106,518
2223,18,107997,1,10,O,white,OoQCQCoCoQ,1,1,2665,453
2223,19,112011,0,10,O,white,QoCQCoQoCQ,0,1,3592,574
2223,20,117076,1,10,O,white,OoCQoQCQoC,1,1,2452,316
2223,21,120737,1,10,O,white,OoCQCoQCoQ,1,1,2154,567
2223,22,124349,1,10,O,white,OQoCoQCoCQ,1,1,2791,417
2223,23,128445,0,10,O,white,oQCQoCQoCQ,0,1,2875,961
2223,24,133190,0,10,O,white,oCQoCQoQCQ,0,1,3279,634
2223,25,138024,1,10,O,white,OCQoCQoCQo,1,1,1791,449
2223,26,141173,1,10,O,white,OCQoCoQCoQ,1,1,3373,2820
2223,27,148277,0,10,O,white,CQoCQoCQoC,0,1,2455,605
2223,28,152235,0,10,O,white,QCoCQoCQoQ,0,1,2591,734
2223,29,156496,1,10,O,white,OoQCoCQCoQ,1,1,2285,979
2223,30,160650,0,10,O,white,oCQCoQCoQo,0,1,2176,608
2223,31,168259,0,10,O,white,CoQCoQoQCQ,0,1,1809,876
2223,32,171888,1,10,O,white,OQCoQCoCQo,1,1,3152,2406
2223,33,178366,0,10,O,white,oQCoCQoCQo,0,1,4469,525
2223,34,184265,0,10,O,white,QoCoQCQoCQ,0,1,4598,593
2223,35,190340,1,10,O,white,OoQCoQCoCQ,1,1,2314,452
2223,36,193998,0,10,O,white,CQoQoCoCQC,0,1,3486,692
2223,37,199105,1,10,O,white,OoQCoQCoQC,1,1,2123,412
2223,38,202533,1,10,O,white,OCoQCoQCQo,1,1,1858,543
2223,39,205844,0,10,O,white,QCoQCoCQoQ,0,1,5570,424
2223,40,212726,1,10,O,white,OCoQCoQoQC,0,1,2446,419
2223,1,14939,0,10,O,white,oQCoQCoQCo,0,1,4472,577
2223,2,20885,0,10,O,white,QoCQoCoCQo,0,1,2937,647
2223,3,25359,0,10,O,white,oQCQCoCQoC,0,1,3498,648
2223,4,30390,1,10,O,white,OCQoQCoQoC,1,1,2457,485
2223,5,34233,0,10,O,white,QCoCoQoCQo,0,1,3996,618
2223,6,39771,0,10,O,white,CQoCQoQoCo,0,1,2944,806
2223,7,44426,1,10,O,white,OQCoQCoQCo,1,1,2542,424
2223,8,48288,0,10,O,white,oCQCQoCQoQ,0,1,4365,574
2223,9,54140,0,10,O,white,QCoCQoCoQC,0,1,3480,717
2223,10,59251,1,10,O,white,OoCQCoQoQC,1,1,2479,466
2223,11,63090,0,10,O,white,oCQCoQoQCo,0,1,3378,1050
2223,12,68408,1,10,O,white,OCoQoCQoQC,1,1,3508,3233
2223,13,76023,1,10,O,white,OQoCQoCQoC,1,1,2318,426
2223,14,79677,0,10,O,white,QoCoQCQoCo,0,1,2982,1289
2223,15,84842,0,10,O,white,CQoCQoCoQC,0,1,3817,621
2223,16,90186,1,10,O,white,OCoQCoQoCQ,1,1,2533,417
2223,17,94027,1,10,O,white,OQCoQCoQoC,1,1,2021,416
2223,18,97351,1,10,O,white,OQoCoQCQoC,0,1,2209,668
2223,19,101113,0,10,O,white,QCoQCoQCoC,0,1,2796,632
2223,20,105449,0,10,O,white,QoCoQCoQCo,0,1,5504,678
2223,21,112516,1,10,O,white,OQoCQCoCQo,1,1,3045,534
2223,22,116985,1,10,O,white,OCoQoCQCoQ,1,1,2285,769
2223,23,120931,0,10,O,white,QCoQoCQoCo,0,1,4427,2081
2223,24,128335,1,10,O,white,OoCQoCQCoQ,1,1,1832,422
2223,25,131492,0,10,O,white,CQoCoQCoQC,0,1,3664,654
2223,26,136708,1,10,O,white,OQCoCoQoQC,1,1,3345,388
2223,27,141338,1,10,O,white,OoQCQoCQoC,1,1,3265,492
2223,28,145990,0,10,O,white,oQCoCQCoQo,0,1,3304,2663
2223,29,152857,1,10,O,white,OCoQoCQCQo,1,1,3050,458
2223,30,157279,0,10,O,white,QCoCQoCQoQ,0,1,3608,608
2223,31,166397,0,10,O,white,oCQoQCQCoQ,0,1,3238,716
2223,32,171251,1,10,O,white,OCoQoCQCoQ,1,1,2160,574
2223,33,174930,0,10,O,white,oQCoCQoCQC,0,1,2985,563
2223,34,179372,1,10,O,white,OoQCQoCoQC,1,1,2676,522
2223,35,183494,1,10,O,white,OCQoQCoCoQ,1,1,4362,908
2223,36,189663,1,10,O,white,OQoCQCoQCo,1,1,2511,279
2223,1,43620,0,10,O,white,CQoQoCQoCo,0,1,4167,537
2223,2,49245,1,10,O,white,OoCQoCQoCQ,1,1,3862,453
2223,3,54471,1,10,O,white,OCoQCoQoCQ,1,1,2710,432
2223,4,58506,1,10,O,white,OoQCoQCQCo,1,1,2666,439
2223,5,62513,0,10,O,white,CoQCoQCoQo,0,1,3761,693
2223,6,67856,1,10,O,white,OCoQCoQCoQ,1,1,3328,642
2223,7,72795,0,10,O,white,QoCQoCoCQC,0,1,5253,459
2223,8,79405,0,10,O,white,CoQoCQoCQo,0,1,4078,472
2223,9,84858,1,10,O,white,OoQCoCQCoQ,1,1,2704,438
2223,10,88911,1,10,O,white,OoQCQoCQoC,0,1,3554,995
2223,11,94350,1,10,O,white,OQCoQCoCQo,1,1,1713,362
2223,12,97312,0,10,O,white,CQoQCoQCoC,0,1,3078,641
2223,13,101933,0,10,O,white,oCQCQoCoQo,0,1,3076,3171
2223,14,109068,0,10,O,white,QCoCQoQCoC,0,1,2990,811
2223,15,113768,0,10,O,white,oCQoCQCQoQ,0,1,2531,653
2223,16,117842,1,10,O,white,OoQCoCQoQC,1,1,3374,261
2223,17,122358,0,10,O,white,CQoQCoCQoC,0,1,3059,520
2223,18,126841,0,10,O,white,CQoQoCQCoC,0,1,2811,494
2223,19,131113,0,10,O,white,oCQoQCoCQC,0,1,4867,436
2223,20,137313,1,10,O,white,OoCQoCQoQC,1,1,3064,550
2223,21,141873,0,10,O,white,CoQCoQCoQo,0,1,3325,518
2223,22,146610,1,10,O,white,OQCoCQoQoC,1,1,1942,424
2223,23,149896,1,10,O,white,OCoQoQCQCo,1,1,3678,315
2223,24,154787,1,10,O,white,OQoCQoCQoC,1,1,3231,457
2223,25,159415,1,10,O,white,OoQCQoCoQC,1,1,3320,653
2223,26,164289,0,10,O,white,QoCQoCoQCo,0,1,5048,508
2223,27,170761,1,10,O,white,OCoQCoQCQo,1,1,2993,518
2223,28,175170,0,10,O,white,QoCoQCQoCQ,0,1,4335,625
2223,29,181041,0,10,O,white,CQoCQoQCoC,0,1,2765,545
2223,30,185247,1,10,O,white,OCQoQoCQoC,1,1,2281,461
2223,31,192447,1,10,O,white,OCoQCoQoCQ,1,1,1948,482
2223,32,195801,1,10,O,white,OoCQCQoQoC,1,1,2828,502
2223,33,200040,1,10,O,white,OCQoCQoCQo,1,1,1669,437
2223,34,203062,0,10,O,white,QoCoQCQoCQ,0,1,4469,611
2223,35,209031,0,10,O,white,CQoQCoQCoC,0,1,3877,529
2223,36,214315,0,10,O,white,oCQCQoQoCo,0,1,2673,460
2223,37,218365,1,10,O,white,OQoCoCQoQC,1,1,2088,495
2223,1,15169,1,10,O,white,OQCoQCoCQo,1,1,1373,449
2223,2,17886,0,10,O,white,QCoCQoQoCo,0,1,2675,563
2223,3,22006,1,10,O,white,OoQCoQCQCo,1,1,1894,584
2223,4,25370,0,10,O,white,oQCoCQCoQC,0,1,2976,507
2223,5,29769,0,10,O,white,oQCQCoCoQo,0,1,2859,529
2223,6,34048,0,10,O,white,CoQoQCoQCo,0,1,3558,506
2223,7,39026,0,10,O,white,QoCQoCQoCQ,0,1,4219,552
2223,8,44702,0,10,O,white,QoCoCQCQoC,0,1,2999,496
2223,9,49083,0,10,O,white,oCQCoQCoQo,0,1,4922,469
2223,10,55355,1,10,O,white,OQCoQCoQoC,1,1,3582,198
2223,11,60046,1,10,O,white,OCoQoCQoCQ,1,1,2692,222
2223,12,63844,0,10,O,white,oQCQCoQCoC,0,1,3185,559
2223,13,68490,1,10,O,white,OoCQoCQCQo,1,1,1904,448
2223,14,71733,0,10,O,white,QCoCoQoCQo,0,1,2561,499
2223,15,75682,1,10,O,white,OCoQoCQoQC,1,1,2288,428
2223,16,79340,1,10,O,white,OQoCoCQoCQ,1,1,4473,311
2223,17,85023,1,10,O,white,OQCoQoCoQC,1,1,2455,361
2223,18,88731,1,10,O,white,OQoCoCQoCQ,1,1,2561,347
2223,19,92539,1,10,O,white,OoCQCoQoCQ,1,1,1933,435
2223,20,95791,0,10,O,white,CoQCQoQCoQ,0,1,4894,498
2223,21,102081,1,10,O,white,OoQCoQCoCQ,1,1,2956,344
2223,22,106281,0,10,O,white,CQoQoCQoCo,0,1,3953,532
2223,23,111682,1,10,O,white,OoQCQoCoQC,1,1,3209,452
2223,24,116252,0,10,O,white,oCQoCQCoQC,0,1,3143,433
2223,25,120744,1,10,O,white,OQCoQCoCQo,1,1,4292,300
2223,26,126231,0,10,O,white,QoCQoCoQCQ,0,1,4512,688
2223,27,132325,1,10,O,white,OQCoQoCQoC,1,1,3591,2445
2223,28,139251,1,10,O,white,OoQCQCoQoC,1,1,2942,651
2223,29,143751,1,10,O,white,OQoCQCoQCo,1,1,2001,981
2223,30,147629,1,10,O,white,OCQoCoQoCQ,1,1,1929,448
2223,31,153738,0,10,O,white,QoCoCQCQoC,0,1,2291,589
2223,32,157536,0,10,O,white,CoQoQCoCQC,0,1,3591,599
2223,33,162639,0,10,O,white,oCQoCQCoQC,0,1,2762,2777
2223,34,169111,1,10,O,white,OoCQoCQoCQ,1,1,1985,1190
2223,35,173214,0,10,O,white,oCQCQoCoQo,0,1,2406,518
2223,36,177045,0,10,O,white,QCoQCoQoCo,0,1,3140,667
2223,37,181744,0,10,O,white,CQoCQoQCoC,0,1,2677,611
2223,38,185947,1,10,O,white,OoCQoQCoQC,1,1,3205,448
2223,39,190490,1,10,O,white,OCoQCoQoCQ,1,1,2840,254
2223,40,194473,0,10,O,white,CoQCoQoCQo,0,1,3705,483
