sub,trial,time,numtargs,size,targchar,targcol,stim,resp,corr,rt1,rt2
18g,1,2797,1,10,O,green,OQoCoCQoCQ,1,1,44364,656
18g,2,48693,0,10,O,green,QoCQoCoQCQ,0,1,926,623
18g,3,51128,0,10,O,green,QoCQoCoQCQ,0,1,1080,681
18g,4,53796,0,10,O,green,QoCoQCQoCo,0,1,1252,961
18g,5,56920,1,10,O,green,OoQCoQCoQC,1,1,885,2661
18g,6,61357,1,10,O,green,OCQoCQoQoC,1,1,910,2393
18g,7,65567,0,10,O,green,CQoQCoCQoQ,0,1,942,1033
18g,8,68461,1,10,O,green,OCQoQCoQCo,1,1,1165,1784
18g,9,72304,1,10,O,green,OQCoQCoQCo,1,1,949,236
18g,10,74382,1,10,O,green,OCQoCQoCQo,1,1,948,415
18g,11,76655,1,10,O,green,OQCoCQoQCo,1,1,933,1197
18g,12,79682,1,10,O,green,OQCoCQoCoQ,1,1,1090,250
18g,13,81912,1,10,O,green,OCQoCQoQoC,1,1,1605,540
18g,14,84957,1,10,O,green,OQoCQoCQoC,1,1,1132,306
18g,15,87279,1,10,O,green,OCoQoCQoCQ,1,1,1253,244
18g,16,89658,1,10,O,green,OCQoQCoCQo,1,1,985,171
18g,17,91724,1,10,O,green,OQoCoQCoCQ,1,1,1229,283
18g,18,94111,0,10,O,green,oCQoCQCoQo,0,1,2736,547
18g,19,98290,1,10,O,green,OQoCQCoCQo,1,1,1279,454
18g,20,100931,0,10,O,green,CoQoCQCoQo,0,1,2916,581
18g,21,105348,0,10,O,green,oCQCoQCoQo,0,1,3782,494
18g,22,110536,1,10,O,green,OCoQoCQoCQ,1,1,1276,1968
18g,23,114664,0,10,O,green,QCoQCoQoCQ,0,1,2264,1006
18g,24,118809,0,10,O,green,CoQCQoQCoC,0,1,1158,381
18g,25,121232,1,10,O,green,OoQCoQCoQC,1,1,897,3775
18g,26,126787,0,10,O,green,CQoCQoCQoQ,0,1,922,440
18g,27,129036,1,10,O,green,OoQCQoCoCQ,1,1,810,226
18g,28,130968,0,10,O,green,QoCoQCoCQC,0,1,4481,488
18g,29,136843,0,10,O,green,QCoCQoCoQo,0,1,1765,615
18g,30,140107,0,10,O,green,CQoQCoCoQo,0,1,1932,1988
18g,31,147505,0,10,O,green,QoCQCoQCoC,0,1,1676,469
18g,32,150580,0,10,O,green,CoQCoQCoQo,0,1,1087,723
18g,33,153336,0,10,O,green,CQoQoCQoCo,0,1,1391,467
18g,34,156120,1,10,O,green,OoCQoQCQoC,1,1,1388,261
18g,35,158654,0,10,O,green,QoCoQCQoCQ,0,1,1249,568
18g,36,161381,1,10,O,green,OoQCoCQoCQ,1,1,898,429
18g,37,163605,1,10,O,green,OQoCQCoQoC,1,1,2402,269
18g,38,167178,0,10,O,green,QCoQCoCoQC,0,1,4370,571
18g,39,173014,0,10,O,green,CoQCoQCoQo,0,1,1146,556
18g,40,175599,0,10,O,green,oCQCoQCQoC,0,1,2186,495
18g,1,4428,0,10,O,green,oCQoCQCoQo,0,1,2477,641
18g,2,8448,1,10,O,green,OCoQCoQoCQ,1,1,949,783
18g,3,11086,1,10,O,green,OCoQCQoCQo,1,1,64311,352
18g,4,76664,0,10,O,green,CQoCQoQoCo,0,1,947,2468
18g,5,80968,0,10,O,green,CoQCoQoQCQ,0,1,1328,386
18g,6,83568,1,10,O,green,OQoCoQCQCo,1,1,1353,1643
18g,7,87457,1,10,O,green,OoCQoQCoQC,1,1,781,874
18g,8,90020,0,10,O,green,CoQoQCoQCQ,0,1,3773,539
18g,9,95229,0,10,O,green,oQCoQCoQCQ,0,1,978,430
18g,10,97525,1,10,O,green,OCQoQCoQoC,1,1,1468,339
18g,11,100219,1,10,O,green,OCQoCQoCoQ,1,1,1863,585
18g,12,103572,1,10,O,green,OoQCoQCQoC,1,1,1199,426
18g,13,106074,0,10,O,green,oQCQoCQoCo,0,1,1162,553
18g,14,108669,0,10,O,green,QCoQoCoQCQ,0,1,1412,675
18g,15,111675,1,10,O,green,OQCoCoQoQC,1,1,1497,364
18g,16,114460,0,10,O,green,QoCoQCoCQC,0,1,3419,487
18g,17,119258,0,10,O,green,CQoQCoQoCQ,0,1,1169,526
18g,18,121882,1,10,O,green,OCQoQoCQoC,1,1,1002,180
18g,19,123982,0,10,O,green,oCQoQCoQCo,0,1,1835,1238
18g,20,127955,0,10,O,green,oQCQoCQoCo,0,1,1039,511
18g,21,130393,0,10,O,green,CoQCoQoCQC,0,1,811,522
18g,22,132621,1,10,O,green,OQCoCoQoCQ,1,1,1004,1459
18g,23,135973,0,10,O,green,CoQoQCoQCQ,0,1,1094,530
18g,24,138517,1,10,O,green,OCQoCoQoCQ,1,1,1321,2251
18g,25,142974,1,10,O,green,OCQoCQoQCo,1,1,1263,296
18g,26,145436,1,10,O,green,OQCoQoCQoC,1,1,1276,381
18g,27,147978,1,10,O,green,OoCQCoQoQC,1,1,1098,1228
18g,28,151222,0,10,O,green,CQoCoQoQCQ,0,1,1110,527
18g,29,153753,1,10,O,green,OoQCQCoQCo,1,1,1284,205
18g,30,156144,0,10,O,green,CQoQoCQCoC,0,1,2172,513
18g,31,161931,0,10,O,green,oCQCQoCQoC,0,1,979,478
18g,32,164312,1,10,O,green,OoQCQoCQoC,1,1,1220,280
18g,33,166715,0,10,O,green,QCoQCoQoCQ,0,1,1277,481
18g,34,169376,0,10,O,green,oCQoCQoCQC,0,1,790,536
18g,35,171589,1,10,O,green,OCoQCQoCQo,1,1,1446,672
18g,36,174610,0,10,O,green,QoCQoCQoCQ,0,1,1050,568
18g,37,177107,1,10,O,green,OoCQCQoQCo,1,1,989,216
18g,38,179212,1,10,O,green,OQoCoCQCoQ,1,1,809,219
18g,39,181173,0,10,O,green,QCoQCoCQoC,0,1,790,501
18g,40,183378,1,10,O,green,OoQCQoCoQC,1,1,999,155
18g,1,5823,1,10,O,green,OQoCoCQoQC,1,1,1938,253
18g,2,8915,1,10,O,green,OoQCoQCoCQ,1,1,1132,1222
18g,3,12149,0,10,O,green,CQoQCoCQoQ,0,1,1938,430
18g,4,15437,0,10,O,green,CoQCoQCoQo,0,1,720,466
18g,5,17510,1,10,O,green,OoCQoCQoCQ,1,1,734,273
18g,6,19438,0,10,O,green,CQoCQoCQoQ,0,1,813,530
18g,7,21688,0,10,O,green,QoCQCoQoCo,0,1,1017,795
18g,8,24383,0,10,O,green,QCoQCoCQoC,0,1,780,463
18g,9,26525,0,10,O,green,CQoQCoQoCQ,0,1,1071,529
18g,10,29057,1,10,O,green,OQoCQoCQoC,1,1,1242,1153
18g,11,32339,0,10,O,green,oQCQoCQoCQ,0,1,3969,672
18g,12,37901,0,10,O,green,CQoQCoCQoC,0,1,840,764
18g,13,40426,1,10,O,green,OoQCoCQCoQ,1,1,2080,4296
18g,14,47693,0,10,O,green,oCQoCQCQoC,0,1,2184,456
18g,15,51243,1,10,O,green,OCQoQCoCoQ,1,1,951,2235
18g,16,55330,0,10,O,green,QCoCQoCoQo,0,1,762,1096
18g,17,58064,0,10,O,green,QoCQCoCoQo,0,1,2201,538
18g,18,61685,0,10,O,green,oCQoCQCoQC,0,1,987,563
18g,19,64111,1,10,O,green,OQoCoCQCQo,1,1,1546,223
18g,20,66808,0,10,O,green,QCoQCoCQoC,0,1,1329,628
18g,21,69679,1,10,O,green,OoQCQoCoQC,1,1,961,251
18g,22,71782,1,10,O,green,OCQoCQoQCo,1,1,1141,511
18g,23,74357,0,10,O,green,oCQoCQoQCQ,0,1,6503,427
18g,24,82160,0,10,O,green,oCQoCQCQoQ,0,1,793,424
18g,25,84275,1,10,O,green,OoQCQCoCoQ,1,1,787,957
18g,26,86905,0,10,O,green,QoCoQCoQCQ,0,1,1948,1037
18g,27,90793,0,10,O,green,oQCoCQCoQC,0,1,1026,749
18g,28,93482,1,10,O,green,OQCoQCoQCo,1,1,1107,281
18g,29,95813,0,10,O,green,oQCoQCQoCo,0,1,1193,1249
18g,30,99143,1,10,O,green,OCQoCoQoCQ,1,1,4724,286
18g,31,107441,1,10,O,green,OQoCQoCQoC,1,1,1139,308
18g,32,109821,1,10,O,green,OCQoQoCQoC,1,1,1479,176
18g,33,112364,1,10,O,green,OQCoQCoQoC,1,1,7431,241
18g,34,120909,0,10,O,green,QCoCQoCQoQ,0,1,3135,456
18g,35,125373,0,10,O,green,QCoCQoCQoQ,0,1,1281,501
18g,36,128056,1,10,O,green,OCoQoCQCoQ,1,1,1320,261
18g,37,130529,1,10,O,green,OQoCoQCQoC,1,1,1203,249
18g,38,132891,1,10,O,green,OoQCQoCQCo,0,1,3952,7112
18g,39,144858,1,10,O,green,OQoCQoCoQC,1,1,1042,227
18g,40,147009,1,10,O,green,OoQCoQCoQC,1,1,1067,211
18g,1,3050,1,10,O,green,OoCQCoQoCQ,1,1,915,288
18g,2,5149,1,10,O,green,OCQoQoCQoC,0,1,819,29742
18g,3,36599,0,10,O,green,CoQCoQoCQo,0,1,12991,406
18g,4,50864,0,10,O,green,oQCQoCoCQC,0,1,3245,415
18g,5,55431,0,10,O,green,QCoCoQoCQC,0,1,1075,439
18g,6,57821,1,10,O,green,OoCQoCQoCQ,1,1,125863,287
18g,7,184891,0,10,O,green,CQoCQoCQoQ,0,1,1231,477
18g,8,187532,0,10,O,green,QoCoQCoCQo,0,1,680,1032
18g,9,190149,1,10,O,green,OoCQoQCoCQ,1,1,899,244
18g,10,192183,0,10,O,green,CoQCoQCQoC,0,1,831,464
18g,11,194425,0,10,O,green,CoQCoQCoQC,0,1,610,1156
18g,12,197104,1,10,O,green,OCoQCQoCQo,1,1,889,198
18g,13,199109,1,10,O,green,OQoCQCoCQo,1,1,1163,266
18g,14,201436,1,10,O,green,OoCQCoQCoQ,1,1,1186,265
18g,15,203773,1,10,O,green,OQoCQCoCoQ,1,1,986,1504
18g,16,207154,0,10,O,green,QCoQCoQCoC,0,1,999,632
18g,17,209680,0,10,O,green,QCoCQoCQoC,0,1,856,553
18g,18,212011,1,10,O,green,OQCoQoCoQC,1,1,780,753
18g,19,214442,1,10,O,green,OoQCoQCoQC,1,1,1108,267
18g,20,216700,1,10,O,green,OCoQoQCQoC,1,1,1553,1101
18g,21,220246,1,10,O,green,OQCoCQoCQo,1,1,968,373
18g,22,222487,0,10,O,green,oQCoQCQCoC,0,1,1776,480
18g,23,225671,0,10,O,green,QCoCoQoQCQ,0,1,929,485
18g,24,227987,0,10,O,green,QoCoQCoQCo,0,1,1102,1532
18g,25,231519,0,10,O,green,oQCQoCQoCo,0,1,1197,573
18g,26,234182,1,10,O,green,OCoQCoQoQC,1,1,1419,263
18g,27,236741,0,10,O,green,oCQoCQoCQC,0,1,1060,504
18g,28,239196,0,10,O,green,QoCQoCQoCQ,0,1,561,493
18g,29,241158,0,10,O,green,CQoQoCQoCQ,0,1,675,453
18g,30,243193,1,10,O,green,OCQoCoQoCQ,1,1,977,505
18g,31,247907,0,10,O,green,CoQCQoCoQo,0,1,699,559
18g,32,250075,1,10,O,green,OoCQoCQCoQ,1,1,835,317
18g,33,252124,1,10,O,green,OQCoCQoCQo,1,1,808,276
18g,34,254114,0,10,O,green,CQoQoCQCoQ,0,1,735,800
18g,35,256567,0,10,O,green,oCQoQCoQCQ,0,1,744,494
18g,36,258726,1,10,O,green,OQCoQCoCoQ,1,1,1723,409
18g,37,261762,0,10,O,green,CQoCQoCoQC,0,1,768,469
18g,38,263891,1,10,O,green,OQoCQoCQoC,1,1,1362,449
18g,39,266592,1,10,O,green,OCoQoCQoCQ,1,1,1444,395
18g,40,269343,1,10,O,green,OoQCoCQoCQ,1,1,1320,403
