sub,trial,time,numtargs,size,targchar,targcol,stim,resp,corr,rt1,rt2
1w,1,3604,1,10,O,white,OoCQoCQCQo,1,1,1293,1297
1w,2,7104,0,10,O,white,CoQoCQoCQC,0,1,4262,3511
1w,3,15773,0,10,O,white,oQCoQCoQCo,0,1,3256,569
1w,4,20491,1,10,O,white,OCQoQCoQoC,1,1,7129,2988
1w,5,31514,1,10,O,white,OoCQoCQoCQ,1,1,22167,570
1w,6,55133,0,10,O,white,oQCQoCQoCo,0,1,2307,2310
1w,7,60648,1,10,O,white,OoCQoCQoQC,1,1,31683,268
1w,8,93476,1,10,O,white,OoQCoQCQCo,1,1,1876,107
1w,9,96360,1,10,O,white,OQCoQoCQCo,1,1,2284,548
1w,10,100080,0,10,O,white,CoQCQoCQoC,0,1,6694,485
1w,11,108165,0,10,O,white,QCoCQoQCoC,0,1,3305,615
1w,12,112979,0,10,O,white,QCoQCoCQoQ,0,1,3654,516
1w,13,118073,1,10,O,white,OQoCoCQCoQ,1,1,1814,849
1w,14,121650,1,10,O,white,OoCQoQCoQC,1,1,4271,90
1w,15,126906,1,10,O,white,OQCoCoQCoQ,1,1,4201,66
1w,16,132070,1,10,O,white,OoCQCoQoCQ,1,1,2329,78
1w,17,135366,1,10,O,white,OoQCQCoCQo,1,1,1272,71
1w,18,137593,0,10,O,white,CoQoQCQoCo,0,1,5786,1219
1w,19,145501,0,10,O,white,oQCoQCoCQo,0,1,5670,619
1w,20,152662,1,10,O,white,OQoCoQCQCo,1,1,2834,69
1w,21,156450,1,10,O,white,OQoCoCQCoQ,1,1,1391,2747
1w,22,161504,1,10,O,white,OoCQoCQCoQ,1,1,1911,70
1w,23,164412,0,10,O,white,oQCQoCQoCo,0,1,4310,448
1w,24,170055,0,10,O,white,oCQoCQCoQo,0,1,3430,843
1w,25,175221,1,10,O,white,OQoCQCoQCo,1,1,2889,63
1w,26,179079,1,10,O,white,OoCQoCQCoQ,1,1,3079,159
1w,27,183215,0,10,O,white,QCoCoQoCQo,0,1,3824,384
1w,28,188315,0,10,O,white,CoQCoQCoQC,0,1,6276,350
1w,29,195831,0,10,O,white,CoQoCQoCQC,0,1,5282,456
1w,30,202447,0,10,O,white,CoQCoQCoQo,0,1,3915,365
1w,31,211012,0,10,O,white,QoCQoCQoCQ,0,1,3303,521
1w,32,215749,0,10,O,white,QCoCQoCQoQ,0,1,7044,467
1w,33,224145,0,10,O,white,QoCQoCQCoQ,0,1,4717,444
1w,34,230190,0,10,O,white,oQCoQCQCoC,0,1,2927,558
1w,35,234567,0,10,O,white,CoQoCQoCQo,0,1,4526,424
1w,36,240453,1,10,O,white,OoQCQoCoQC,1,1,2152,79
1w,37,243603,0,10,O,white,QCoCQoCQoC,0,1,4089,403
1w,38,248998,1,10,O,white,OQCoQCoCQo,1,1,3268,69
1w,39,253225,1,10,O,white,OCoQoCQoCQ,1,1,2286,143
1w,40,256544,1,10,O,white,OCoQoCQCoQ,1,1,1756,76
1w,1,13784,0,10,O,white,oQCQoCQoCo,0,1,4685,409
1w,2,19762,1,10,O,white,OQoCQCoQCo,1,1,1521,42
1w,3,22232,0,10,O,white,QCoCQoQCoQ,0,1,2739,358
1w,4,26213,1,10,O,white,OoQCoCQoQC,1,1,2537,822
1w,5,30466,0,10,O,white,oQCQoCQoCo,0,1,5061,306
1w,6,36714,0,10,O,white,CoQoCQCoQo,0,1,2518,488
1w,7,40634,1,10,O,white,OQCoQCoQCo,1,1,1636,71
1w,8,43265,0,10,O,white,CQoCoQCoQC,0,1,3712,447
1w,9,48357,1,10,O,white,OoCQCoQCoQ,1,1,2234,62
1w,10,51562,0,10,O,white,CoQoQCoCQo,0,1,2668,283
1w,11,55455,1,10,O,white,OQCoCQoCoQ,1,1,2459,77
1w,12,58875,1,10,O,white,OoQCQoCQoC,1,1,3614,167
1w,13,63557,1,10,O,white,OCQoCQoCQo,1,1,2229,56
1w,14,66755,0,10,O,white,oCQCoQoQCo,0,1,2991,464
1w,15,71095,1,10,O,white,OoQCoCQCoQ,1,1,2191,1155
1w,16,75330,1,10,O,white,OQoCoQCoQC,1,1,1744,52
1w,17,78009,1,10,O,white,OQoCoCQoQC,1,1,1678,64
1w,18,80671,1,10,O,white,OQoCQCoCQo,1,1,1522,618
1w,19,83716,1,10,O,white,OoQCoCQCoQ,1,1,1683,39
1w,20,86325,1,10,O,white,OCQoQoCoQC,1,1,2414,55
1w,21,89689,0,10,O,white,QCoQCoQoCQ,0,1,4013,389
1w,22,94967,1,10,O,white,OoCQoCQCoQ,1,1,1630,149
1w,23,97644,0,10,O,white,oQCoQCQCoC,0,1,3508,337
1w,24,102375,0,10,O,white,QoCoQCoQCo,0,1,3387,860
1w,25,107518,0,10,O,white,CQoCoQCQoC,0,1,1584,364
1w,26,110367,1,10,O,white,OoCQoCQoCQ,1,1,1883,72
1w,27,113207,0,10,O,white,QoCQoCQoCo,0,1,1480,397
1w,28,116039,0,10,O,white,QoCoQCoCQC,0,1,1558,1642
1w,29,120125,0,10,O,white,oCQCQoQoCQ,0,1,2327,365
1w,30,123731,1,10,O,white,OQoCQoCQoC,1,1,3677,50
1w,31,130717,0,10,O,white,CoQoQCoCQo,0,1,2062,433
1w,32,134145,0,10,O,white,CQoQoCQCoC,0,1,2142,306
1w,33,137512,1,10,O,white,OQCoCQoCQo,1,1,1197,33
1w,34,139674,0,10,O,white,QCoCoQoCQC,0,1,2137,430
1w,35,143143,1,10,O,white,OQoCQCoQoC,1,1,1511,450
1w,36,146028,1,10,O,white,OoCQCoQCoQ,1,1,2362,93
1w,37,149390,0,10,O,white,QoCoCQCQoQ,0,1,3124,781
1w,38,154176,0,10,O,white,QoCQCoCQoQ,0,1,4595,627
1w,39,160274,0,10,O,white,oCQoCQCoQC,0,1,1938,453
1w,40,163546,1,10,O,white,OQCoCQoQoC,1,1,1998,213
1w,1,133121,1,10,O,white,OoCQCoQCoQ,1,1,3003,63
1w,2,137065,0,10,O,white,CoQoCQCoQC,0,1,1320,340
1w,3,139664,0,10,O,white,CoQCQoCoQo,0,1,3568,360
1w,4,144489,1,10,O,white,OQoCQCoCQo,1,1,2864,77
1w,5,148317,0,10,O,white,oQCoQCQoCQ,0,1,3982,466
1w,6,153648,0,10,O,white,CQoQCoQoCQ,0,1,1954,470
1w,7,156980,1,10,O,white,OoQCQoCoQC,1,1,2921,40
1w,8,160843,1,10,O,white,OQCoCoQoCQ,1,1,1308,44
1w,9,163098,0,10,O,white,QCoQCoQCoC,0,1,5220,716
1w,10,169930,1,10,O,white,OQoCQoCQoC,1,1,2816,78
1w,11,173709,0,10,O,white,CQoQCoQoCQ,0,1,2245,382
1w,12,177227,1,10,O,white,OoQCQoCQoC,1,1,2435,57
1w,13,180632,0,10,O,white,CoQoCQoQCo,0,1,4508,459
1w,14,186522,0,10,O,white,oQCQoCQoCo,0,1,3703,354
1w,15,191480,1,10,O,white,OCoQCoQoCQ,1,1,1535,54
1w,16,193960,0,10,O,white,CoQCoQoCQo,0,1,5642,447
1w,17,200956,1,10,O,white,OQCoCQoQoC,1,1,3185,123
1w,18,205161,1,10,O,white,OoQCQoCoCQ,1,1,3475,167
1w,19,209691,1,10,O,white,OoQCQCoQCo,1,1,2621,75
1w,20,213292,1,10,O,white,OoQCoQCQCo,1,1,2913,51
1w,21,217163,1,10,O,white,OoQCQCoQoC,1,1,1378,71
1w,22,219520,1,10,O,white,OQCoQoCQCo,1,1,2702,150
1w,23,223244,1,10,O,white,OCQoCQoQCo,1,1,1542,245
1w,24,225952,1,10,O,white,OoQCoQCoCQ,1,1,2389,77
1w,25,229308,0,10,O,white,CQoCoQCoQC,0,1,2482,336
1w,26,233019,1,10,O,white,OoQCoQCQCo,1,1,1075,131
1w,27,235104,1,10,O,white,OoQCQoCQoC,1,1,1649,3003
1w,28,240647,0,10,O,white,oQCQCoCoQC,0,1,3151,337
1w,29,245033,0,10,O,white,QoCQoCoQCQ,0,1,3092,360
1w,30,249392,0,10,O,white,QoCoQCQCoC,0,1,2305,332
1w,31,255683,0,10,O,white,CoQoCQCoQC,0,1,1762,383
1w,32,258727,0,10,O,white,CoQoCQCoQC,0,1,1939,343
1w,33,261888,0,10,O,white,CoQoQCQoCQ,0,1,1925,420
1w,34,265127,1,10,O,white,OoQCQoCoQC,1,1,3915,56
1w,35,270004,0,10,O,white,CoQoQCoQCQ,0,1,1907,850
1w,36,273659,0,10,O,white,CQoQCoQoCQ,0,1,2291,752
1w,37,277584,0,10,O,white,CoQCoQoCQo,0,1,4009,533
1w,38,283011,1,10,O,white,OCoQoCQoCQ,1,1,3129,563
1w,39,287610,0,10,O,white,QCoCQoQCoQ,0,1,3770,452
1w,40,292731,1,10,O,white,OoQCQoCQCo,1,1,1870,89
1w,1,25016,1,10,O,white,OQoCQCoQCo,1,1,1286,71
1w,2,27238,0,10,O,white,QoCQoCoCQo,0,1,1790,404
1w,3,30348,1,10,O,white,OCQoQoCoQC,1,1,1286,67
1w,4,32596,0,10,O,white,QoCoCQoCQo,0,1,2025,357
1w,5,35877,1,10,O,white,OCoQoCQCoQ,1,1,38867,783
1w,6,76431,1,10,O,white,OQCoQoCoCQ,1,1,2328,72
1w,7,79745,1,10,O,white,OCQoCQoQCo,1,1,2024,47
1w,8,82719,1,10,O,white,OCoQCoQoQC,1,1,3542,59
1w,9,87234,1,10,O,white,OCQoCQoQCo,1,1,3109,98
1w,10,91323,1,10,O,white,OCoQoCQoCQ,0,1,2365,662
1w,11,95261,1,10,O,white,OCoQoCQCoQ,1,1,1193,54
1w,12,97395,1,10,O,white,OoCQoCQCoQ,1,1,2373,64
1w,13,100749,0,10,O,white,QoCQoCQoCQ,0,1,2340,367
1w,14,104338,0,10,O,white,CQoCQoQCoQ,0,1,2129,377
1w,15,107759,0,10,O,white,oQCoCQoQCo,0,1,2478,381
1w,16,111508,1,10,O,white,OoCQCoQCoQ,1,1,3364,208
1w,17,115985,1,10,O,white,OCQoQCoQoC,1,1,2575,58
1w,18,119512,1,10,O,white,OCoQoQCQoC,1,1,2546,74
1w,19,123030,0,10,O,white,CoQCQoQCoQ,0,1,4794,491
1w,20,129222,0,10,O,white,oCQCQoCoQC,0,1,2634,377
1w,21,133120,0,10,O,white,oQCQCoCQoQ,0,1,2416,2104
1w,22,138518,0,10,O,white,QCoCQoCQoQ,0,1,2307,433
1w,23,142139,1,10,O,white,OQoCoQCQCo,1,1,2330,68
1w,24,145429,0,10,O,white,QoCQCoCQoC,0,1,3867,381
1w,25,150569,1,10,O,white,OoQCoQCQoC,1,1,1902,62
1w,26,153424,0,10,O,white,QCoCoQoCQC,0,1,1746,435
1w,27,156525,1,10,O,white,OQoCoQCQoC,1,1,985,733
1w,28,159113,0,10,O,white,CQoCQoQCoC,0,1,2171,421
1w,29,162627,0,10,O,white,oCQoCQoCQo,0,1,3134,442
1w,30,167088,0,10,O,white,QCoCoQCQoQ,0,1,5336,331
1w,31,176024,1,10,O,white,OoCQoCQCoQ,1,1,811,1984
1w,32,179729,0,10,O,white,CQoQCoCQoC,0,1,2258,408
1w,33,183286,0,10,O,white,oQCoCQCQoC,0,1,1784,433
1w,34,186392,0,10,O,white,QoCoQCoCQC,0,1,1787,375
1w,35,189434,0,10,O,white,QoCQoCQCoC,0,1,1800,550
1w,36,192669,1,10,O,white,OoQCQoCoQC,1,1,1316,73
1w,37,194980,1,10,O,white,OoQCoCQoCQ,1,1,3403,529
1w,38,199817,1,10,O,white,OoCQCQoQCo,1,1,2565,78
1w,39,203356,0,10,O,white,CQoQCoQCoQ,0,1,2166,419
1w,40,206814,0,10,O,white,QCoCQoCQoQ,0,1,2572,458
