sub,trial,time,numtargs,size,targchar,targcol,stim,resp,corr,rt1,rt2
8g,1,24436,1,10,O,green,OCQoQoCoQC,1,1,2478,72
8g,2,27879,0,10,O,green,QoCQCoQCoC,0,1,2017,912
8g,3,31721,1,10,O,green,OoQCQCoCQo,1,1,1124,62
8g,4,33844,0,10,O,green,CQoCQoQoCo,0,1,2371,659
8g,5,37758,1,10,O,green,OCoQCoQCoQ,1,1,805,78
8g,6,39528,1,10,O,green,OQoCoCQCoQ,1,1,2131,62
8g,7,42623,1,10,O,green,OoCQCQoCoQ,1,1,2609,40
8g,8,46175,0,10,O,green,oQCoQCQoCo,0,1,1312,1891
8g,9,50262,1,10,O,green,OoQCoQCoQC,0,1,631,2976
8g,10,54796,0,10,O,green,CoQoCQoCQo,0,1,1015,884
8g,11,57619,1,10,O,green,OQCoQCoCQo,1,1,2185,118
8g,12,60811,0,10,O,green,QoCQCoQoCo,0,1,2240,872
8g,13,64817,1,10,O,green,OoQCoQCoCQ,1,1,1620,54
8g,14,67382,1,10,O,green,OCoQCQoCQo,0,1,1273,765
8g,15,70344,1,10,O,green,OoQCoCQCoQ,1,1,1173,36
8g,16,72436,1,10,O,green,OCQoCQoQCo,0,1,1014,1123
8g,17,75475,0,10,O,green,QoCoQCoCQC,0,1,1605,646
8g,18,78631,0,10,O,green,CoQCoQCoQo,0,1,1975,1522
8g,19,83029,0,10,O,green,oQCoCQoCQC,0,1,960,508
8g,20,85394,1,10,O,green,OQCoQoCoQC,1,1,934,98
8g,21,87347,0,10,O,green,QoCQoCQoCQ,0,1,997,464
8g,22,89689,1,10,O,green,OoQCQCoQCo,1,1,1059,66
8g,23,91763,1,10,O,green,OoCQCoQoCQ,1,1,1065,119
8g,24,93830,0,10,O,green,QCoQCoCQoQ,0,1,1209,447
8g,25,96384,0,10,O,green,CQoCoQoCQo,0,1,694,1646
8g,26,99638,1,10,O,green,OoQCQoCQoC,0,1,1366,1098
8g,27,103004,0,10,O,green,oQCQCoQCoC,0,1,1689,557
8g,28,106152,0,10,O,green,oCQoCQCQoC,0,1,1393,481
8g,29,108924,0,10,O,green,CoQCoQCQoQ,0,1,1727,651
8g,30,112194,1,10,O,green,OQCoQCoCQo,1,1,733,136
8g,31,117219,1,10,O,green,OoQCoCQoCQ,0,1,1175,748
8g,32,120057,1,10,O,green,OCQoQoCoCQ,1,1,1139,221
8g,33,122323,0,10,O,green,QCoQoCoQCQ,0,1,2220,624
8g,34,126087,0,10,O,green,QCoCoQCoQo,0,1,800,423
8g,35,128222,1,10,O,green,OQCoQCoCQo,1,1,618,1922
8g,36,131655,1,10,O,green,OCoQCQoQoC,1,1,1502,18
8g,37,134068,0,10,O,green,QoCoQCoCQo,0,1,892,2501
8g,38,138377,0,10,O,green,CoQoQCoCQo,0,1,1091,802
8g,39,141195,0,10,O,green,oCQCQoCoQo,0,1,1135,487
8g,40,143726,0,10,O,green,oQCoCQCQoC,0,1,831,654
8g,1,26044,1,10,O,green,OQoCQoCoQC,0,1,3071,410
8g,2,30422,1,10,O,green,OQCoQCoQCo,1,1,1504,56
8g,3,32891,1,10,O,green,OQoCQoCQCo,1,1,1352,62
8g,4,35195,0,10,O,green,oCQoCQCQoQ,0,1,1612,386
8g,5,38151,0,10,O,green,CQoCQoQCoQ,0,1,1958,421
8g,6,41431,1,10,O,green,OQoCoQCQoC,1,1,2461,41
8g,7,44841,0,10,O,green,oCQCQoQCoC,0,1,1331,348
8g,8,47415,0,10,O,green,CoQoQCoQCQ,0,1,2136,342
8g,9,50783,1,10,O,green,OoQCQoCQoC,1,1,2036,56
8g,10,53780,0,10,O,green,oQCQCoQCoQ,0,1,1802,398
8g,11,56869,1,10,O,green,OQCoQCoQoC,1,1,1949,53
8g,12,59760,1,10,O,green,OQCoQCoQCo,1,1,1294,38
8g,13,61977,0,10,O,green,CoQCQoCQoQ,0,1,1357,392
8g,14,64617,0,10,O,green,QoCoCQCQoQ,0,1,1470,434
8g,15,67427,0,10,O,green,oQCoCQoCQC,0,1,984,411
8g,16,69719,1,10,O,green,OoQCQoCQoC,1,1,1164,43
8g,17,71812,0,10,O,green,QoCoCQoCQC,0,1,1858,346
8g,18,74950,0,10,O,green,QCoQoCoQCQ,0,1,1094,349
8g,19,77296,0,10,O,green,CoQCoQCoQC,0,1,1025,343
8g,20,79561,1,10,O,green,OQoCQoCoCQ,1,1,1864,149
8g,21,82466,0,10,O,green,QoCoQCoCQo,0,1,886,387
8g,22,84621,1,10,O,green,OQoCoQCoQC,1,1,1022,48
8g,23,86579,1,10,O,green,OCQoQCoQCo,1,1,1038,62
8g,24,88611,0,10,O,green,QCoQCoQoCo,0,1,1653,2051
8g,25,93233,1,10,O,green,OoQCQoCoCQ,1,1,879,72
8g,26,95060,1,10,O,green,OCQoCQoCQo,1,1,1510,46
8g,27,97524,0,10,O,green,oCQCoQoQCo,0,1,1441,460
8g,28,100344,1,10,O,green,OoCQoQCQoC,1,1,2031,54
8g,29,103310,0,10,O,green,oQCoQCQoCQ,0,1,1372,373
8g,30,105960,0,10,O,green,CQoQCoQoCQ,0,1,1921,379
8g,31,112186,1,10,O,green,OoCQoQCQoC,1,1,2227,81
8g,32,115419,0,10,O,green,CQoCoQoCQo,0,1,1966,339
8g,33,118604,1,10,O,green,OoCQCQoQoC,1,1,1848,123
8g,34,121485,1,10,O,green,OoCQCQoQoC,1,1,1220,48
8g,35,123640,1,10,O,green,OoQCQoCoQC,1,1,1106,135
8g,36,125781,0,10,O,green,CoQoQCoCQC,0,1,1511,341
8g,37,128552,1,10,O,green,OQCoCQoQCo,1,1,1619,135
8g,38,131222,0,10,O,green,QCoQCoCQoQ,0,1,1897,389
8g,39,134404,1,10,O,green,OoCQCoQCQo,1,1,2564,61
8g,40,137920,0,10,O,green,QCoCQoCoQo,0,1,3653,320
8g,1,15893,1,10,O,green,OoCQoQCQoC,1,1,2357,2375
8g,2,21545,1,10,O,green,OoQCoQCQCo,1,1,2198,68
8g,3,24725,0,10,O,green,CQoCoQoCQC,0,1,3323,457
8g,4,29400,0,10,O,green,oQCoCQCoQC,0,1,2876,390
8g,5,33579,1,10,O,green,OCQoCQoCoQ,1,1,1409,48
8g,6,35922,0,10,O,green,CoQoQCQoCo,0,1,1239,409
8g,7,38457,0,10,O,green,CQoCQoQoCQ,0,1,2331,432
8g,8,42128,1,10,O,green,OCoQoCQCoQ,1,1,1786,153
8g,9,44969,0,10,O,green,CoQCoQCoQo,0,1,1062,304
8g,10,47247,1,10,O,green,OQoCQoCQoC,1,1,1168,49
8g,11,49371,1,10,O,green,OCoQCQoQoC,1,1,1322,32
8g,12,51643,0,10,O,green,CoQCoQoQCQ,0,1,1972,349
8g,13,54889,0,10,O,green,oQCQoCoQCQ,0,1,960,376
8g,14,57103,1,10,O,green,OQCoCQoCoQ,1,1,738,145
8g,15,58886,0,10,O,green,oQCQoCoQCQ,0,1,774,361
8g,16,60928,1,10,O,green,OCoQoCQCQo,1,1,2022,1539
8g,17,65400,1,10,O,green,OoCQoCQoCQ,1,1,1580,568
8g,18,68455,1,10,O,green,OoQCoQCoCQ,1,1,1336,67
8g,19,70746,0,10,O,green,oQCoQCoQCQ,0,1,1037,366
8g,20,73055,0,10,O,green,oCQoQCQoCQ,0,1,1915,739
8g,21,76617,1,10,O,green,OCQoQCoQCo,1,1,2262,94
8g,22,79878,1,10,O,green,OoCQoQCoQC,1,1,1700,67
8g,23,82543,1,10,O,green,OoQCoQCoCQ,1,1,1431,80
8g,24,84955,1,10,O,green,OQoCoCQoQC,1,1,1538,26
8g,25,87412,0,10,O,green,QCoCQoQCoQ,0,1,1063,365
8g,26,89758,0,10,O,green,CQoCQoQCoC,0,1,1109,1052
8g,27,92841,1,10,O,green,OQCoQCoQCo,1,1,1967,123
8g,28,95823,0,10,O,green,oCQCQoCoQo,0,1,1991,341
8g,29,99044,1,10,O,green,OCQoCoQCoQ,1,1,2649,53
8g,30,102645,1,10,O,green,OCoQCoQoCQ,1,1,1695,44
8g,31,107820,1,10,O,green,OCoQoCQoCQ,1,1,1202,4277
8g,32,114202,0,10,O,green,QCoCQoCQoC,0,1,1345,477
8g,33,116912,0,10,O,green,CoQCoQCoQo,0,1,1951,361
8g,34,120119,1,10,O,green,OoQCQoCoQC,1,1,1182,35
8g,35,122222,0,10,O,green,CoQCoQoCQo,0,1,1265,1001
8g,36,125425,1,10,O,green,OCoQoCQCoQ,1,1,1916,1002
8g,37,129230,0,10,O,green,CoQCQoCoQC,0,1,1469,340
8g,38,131933,0,10,O,green,oCQCoQoCQo,0,1,1706,419
8g,39,134940,0,10,O,green,CoQoCQCoQC,0,1,1071,367
8g,40,137261,0,10,O,green,CoQCoQoCQC,0,1,1225,340
8g,1,9686,0,10,O,green,CQoCQoCoQo,0,1,2826,455
8g,2,13850,0,10,O,green,oQCQoCQoCo,0,1,2435,445
8g,3,17631,0,10,O,green,oQCoCQCQoQ,0,1,1211,431
8g,4,20209,1,10,O,green,OCoQCoQCoQ,1,1,1133,20
8g,5,22262,0,10,O,green,QoCoQCQCoQ,0,1,1672,470
8g,6,25305,0,10,O,green,QoCoQCoQCQ,0,1,1795,463
8g,7,28452,0,10,O,green,oCQoQCQoCo,0,1,1295,402
8g,8,31046,1,10,O,green,OoCQoCQCoQ,1,1,1044,84
8g,9,33104,0,10,O,green,oQCoQCQCoQ,0,1,1891,405
8g,10,36310,0,10,O,green,QCoQoCQoCQ,0,1,1583,456
8g,11,39255,1,10,O,green,OQoCoQCoQC,1,1,1966,69
8g,12,42211,0,10,O,green,QCoCoQoCQC,0,1,1312,457
8g,13,44869,0,10,O,green,QoCQoCQoCQ,0,1,1637,434
8g,14,47830,0,10,O,green,oQCQoCoQCQ,0,1,1399,422
8g,15,50540,1,10,O,green,OQCoQoCoCQ,1,1,1403,73
8g,16,52898,0,10,O,green,oQCoQCQoCQ,0,1,1436,498
8g,17,55753,1,10,O,green,OQCoQoCQCo,1,1,1186,148
8g,18,57997,0,10,O,green,QoCQCoCoQo,0,1,1636,372
8g,19,60880,0,10,O,green,oQCQCoCQoC,0,1,1929,467
8g,20,64159,1,10,O,green,OoCQCQoCoQ,1,1,1233,66
8g,21,66363,1,10,O,green,OQoCoQCoCQ,1,1,1298,1636
8g,22,70204,1,10,O,green,OoCQoQCQoC,1,1,1096,54
8g,23,72238,1,10,O,green,OQoCQoCQCo,1,1,1769,67
8g,24,74976,1,10,O,green,OCoQCQoCQo,1,1,1246,57
8g,25,77223,1,10,O,green,OoQCQoCQoC,1,1,1590,52
8g,26,79751,1,10,O,green,OQCoCoQoCQ,1,1,1808,59
8g,27,82515,1,10,O,green,OCQoQCoCoQ,1,1,1598,53
8g,28,85084,1,10,O,green,OCoQoCQoCQ,1,1,2156,62
8g,29,88187,1,10,O,green,OQoCoQCQoC,1,1,1125,53
8g,30,90253,0,10,O,green,CoQoCQCoQo,0,1,1334,363
8g,31,95134,1,10,O,green,OQoCQoCoCQ,1,1,2531,67
8g,32,98660,1,10,O,green,OQCoCoQCQo,1,1,2095,61
8g,33,101732,1,10,O,green,OCoQCoQoCQ,1,1,1198,64
8g,34,103891,0,10,O,green,CoQoQCoQCQ,0,1,2011,381
8g,35,107238,0,10,O,green,CoQoCQCoQC,0,1,10564,364
8g,36,119057,0,10,O,green,CoQoQCQCoQ,0,1,1052,406
8g,37,121430,1,10,O,green,OCQoQCoCQo,1,1,995,36
8g,38,123360,0,10,O,green,oQCoCQoCQC,0,1,1465,468
8g,39,126171,1,10,O,green,OCQoQCoQCo,1,1,1374,1249
8g,40,129709,0,10,O,green,QoCQCoCoQC,0,1,3764,409
