sub,trial,time,numtargs,size,targchar,targcol,stim,resp,corr,rt1,rt2
4m,1,13036,0,10,O,white,oQCoCQoCQC,0,1,1953,511
4m,2,16388,0,10,O,green,QCoQCoCQoC,0,1,987,451
4m,3,18735,0,10,O,green,CoQoQCoQCo,0,1,976,603
4m,4,21223,0,10,O,white,CoQoCQoQCo,0,1,1748,472
4m,5,24349,0,10,O,white,QCoQCoCQoQ,0,1,2256,565
4m,6,28050,1,10,O,white,OCoQoQCQoC,0,1,1268,788
4m,7,31012,1,10,O,green,OQCoQoCoCQ,0,1,956,658
4m,8,33518,1,10,O,white,OCQoQoCQCo,0,1,937,545
4m,9,35881,1,10,O,white,OQoCoCQCoQ,1,1,2405,500
4m,10,39719,0,10,O,white,oQCoCQoQCQ,0,1,3562,459
4m,11,44627,0,10,O,green,oQCoCQoCQC,0,1,1632,462
4m,12,47598,1,10,O,green,OCoQoCQCQo,1,1,935,340
4m,13,49788,0,10,O,green,oQCQoCoQCQ,0,1,2683,1987
4m,14,55365,0,10,O,white,CQoQoCQoCo,0,1,1882,1626
4m,15,59833,1,10,O,green,OoQCQoCoCQ,1,1,761,242
4m,16,61734,1,10,O,white,OCoQCoQoQC,1,1,4009,699
4m,17,67347,0,10,O,white,CoQoQCoQCo,0,1,2428,417
4m,18,71094,0,10,O,green,QoCQoCQCoC,0,1,1124,454
4m,19,73556,1,10,O,white,OCQoQoCoQC,1,1,1223,4425
4m,20,80088,1,10,O,white,OCoQoCQoQC,1,1,1950,983
4m,21,83921,1,10,O,green,OoCQCQoQCo,1,1,974,426
4m,22,86222,0,10,O,green,oCQoCQCoQo,0,1,1067,470
4m,23,88666,0,10,O,white,QCoCQoCQoQ,0,1,3136,439
4m,24,93136,0,10,O,green,oCQCoQoCQo,0,1,1109,487
4m,25,95626,1,10,O,green,OQoCoQCoQC,1,1,1049,477
4m,26,98068,1,10,O,green,OQoCoCQCoQ,1,1,644,413
4m,27,100009,0,10,O,green,oQCoQCoQCo,0,1,2058,438
4m,28,103428,1,10,O,green,OQoCQoCoQC,1,1,1252,200
4m,29,105773,0,10,O,white,oQCoQCQCoQ,0,1,2015,446
4m,30,109151,1,10,O,green,OCQoQCoQCo,1,1,774,259
4m,31,113467,1,10,O,white,OCoQCoQoQC,1,1,1185,579
4m,32,116149,0,10,O,white,QoCQCoQCoQ,0,1,1441,434
4m,33,118919,1,10,O,white,OCQoQCoCQo,1,1,950,377
4m,34,121146,1,10,O,white,OoCQCQoCoQ,0,1,2056,642
4m,35,124776,0,10,O,green,QCoCQoQCoQ,0,1,1089,458
4m,36,127218,0,10,O,white,CoQoCQCoQC,0,1,1633,531
4m,37,130278,1,10,O,green,OoQCoQCQCo,1,1,902,169
4m,38,132271,0,10,O,green,oCQCoQCoQo,0,1,1321,383
4m,39,134886,1,10,O,green,OCQoQCoCQo,1,1,1194,291
4m,40,137260,1,10,O,white,OCoQCoQCoQ,1,1,1962,436
4m,1,21617,0,10,O,white,QCoQoCoQCQ,0,1,2841,505
4m,2,25860,0,10,O,green,CoQCoQoQCQ,0,1,1993,536
4m,3,29272,1,10,O,green,OCoQCoQoQC,1,1,854,246
4m,4,31275,1,10,O,green,OQoCoCQCoQ,1,1,909,236
4m,5,33324,1,10,O,green,OoQCoQCoCQ,1,1,1261,398
4m,6,35870,0,10,O,green,QoCoQCQoCo,0,1,2978,1472
4m,7,41239,1,10,O,green,OoQCQoCQCo,1,1,1491,250
4m,8,43873,1,10,O,white,OoQCQoCQoC,1,1,1612,442
4m,9,46847,1,10,O,white,OCQoQCoCoQ,1,1,1542,273
4m,10,49563,1,10,O,green,OCQoCQoQCo,1,1,1325,391
4m,11,52167,0,10,O,white,QoCQoCQoCQ,0,1,1888,495
4m,12,55453,0,10,O,green,oCQoQCoCQC,0,1,1991,450
4m,13,58788,0,10,O,green,oQCQoCoCQo,0,1,816,585
4m,14,61080,0,10,O,white,QCoQCoCQoC,0,1,1866,1267
4m,15,65098,1,10,O,white,OCQoCQoCQo,1,1,2079,366
4m,16,68438,0,10,O,green,QCoCQoQoCQ,0,1,1794,2370
4m,17,73527,0,10,O,green,QoCoQCoCQC,0,1,850,461
4m,18,75733,1,10,O,white,OoQCoQCQoC,1,1,1346,1261
4m,19,79222,0,10,O,white,CQoQCoQoCQ,0,1,1999,775
4m,20,82882,0,10,O,green,oCQCQoCQoQ,0,1,1064,451
4m,21,85306,1,10,O,white,OCoQoQCoCQ,1,1,2933,379
4m,22,89507,1,10,O,white,OQoCQCoCoQ,0,1,2026,606
4m,23,93076,1,10,O,green,OCQoCQoQCo,1,1,901,250
4m,24,95119,0,10,O,green,oCQCoQoCQo,0,1,1054,640
4m,25,97752,1,10,O,green,OoQCQoCQoC,1,1,1101,380
4m,26,100123,1,10,O,green,OQCoQCoCoQ,1,1,1541,394
4m,27,102981,0,10,O,green,CoQCQoCoQo,0,1,1269,418
4m,28,105557,1,10,O,green,OQCoCQoCQo,1,1,923,258
4m,29,107631,0,10,O,white,CoQoQCQoCQ,0,1,2232,878
4m,30,111636,1,10,O,white,OQoCQoCoCQ,1,1,1681,600
4m,31,117174,0,10,O,white,CoQoCQCQoC,0,1,2227,545
4m,32,120858,0,10,O,white,QoCoQCoCQo,0,1,1678,629
4m,33,124071,0,10,O,white,CoQoCQoCQo,0,1,1470,430
4m,34,126891,1,10,O,white,OoCQCoQoCQ,0,1,1318,561
4m,35,129692,1,10,O,green,OQCoCQoQoC,1,1,1035,1103
4m,36,132730,0,10,O,white,CQoQCoQCoC,0,1,1237,575
4m,37,135446,0,10,O,white,CQoCoQoCQC,0,1,2244,410
4m,38,139001,1,10,O,white,OoCQCoQoCQ,1,1,1611,459
4m,39,141956,1,10,O,white,OCQoCQoCoQ,1,1,1751,183
4m,40,144803,0,10,O,green,oCQCQoQCoC,0,1,1013,1663
4m,1,14078,1,10,O,white,OQoCQCoCoQ,1,1,2274,123
4m,2,17373,0,10,O,green,QCoCoQoCQC,0,1,653,416
4m,3,19325,1,10,O,green,OQoCoQCoCQ,1,1,833,400
4m,4,21446,0,10,O,green,CoQoQCoQCQ,0,1,1712,2098
4m,5,26151,0,10,O,green,oQCQoCoCQo,0,1,654,477
4m,6,28183,1,10,O,white,OoCQCoQCoQ,1,1,1438,201
4m,7,30722,0,10,O,white,oCQoCQCQoQ,0,1,2320,395
4m,8,34327,1,10,O,green,OCoQoQCoQC,1,1,785,163
4m,9,36160,0,10,O,green,QoCoQCoCQC,0,1,2278,651
4m,10,39972,1,10,O,green,OCoQoCQCoQ,1,1,791,204
4m,11,41869,0,10,O,green,QCoQCoCQoQ,0,1,2693,436
4m,12,45898,0,10,O,green,QCoCoQoQCo,0,1,992,581
4m,13,48383,1,10,O,white,OCQoCQoCQo,1,1,2405,292
4m,14,51982,0,10,O,green,CQoQCoCQoQ,0,1,1728,539
4m,15,55142,0,10,O,white,CoQCQoCQoQ,0,1,1422,620
4m,16,58069,1,10,O,green,OCQoQCoCQo,1,1,760,1754
4m,17,61475,0,10,O,white,CQoCQoQCoC,0,1,2212,446
4m,18,65039,0,10,O,green,oCQCoQCoQC,0,1,934,466
4m,19,67351,1,10,O,white,OCQoCQoCQo,1,1,2531,211
4m,20,71033,1,10,O,white,OoCQCoQCoQ,1,1,1160,428
4m,21,73529,1,10,O,white,OCQoCQoQCo,1,1,1979,210
4m,22,76635,1,10,O,green,OoCQCoQCoQ,1,1,891,245
4m,23,78668,1,10,O,green,OoQCQoCQoC,1,1,1596,293
4m,24,81472,1,10,O,green,OQoCQCoQCo,1,1,1078,196
4m,25,83621,1,10,O,white,OCoQoCQCoQ,1,1,1814,1199
4m,26,87538,0,10,O,white,CQoQoCoCQC,0,1,2807,581
4m,27,91852,0,10,O,green,CQoCQoCoQo,0,1,1074,439
4m,28,94294,1,10,O,white,OCQoCoQoCQ,0,1,1281,2787
4m,29,99271,0,10,O,white,oQCQCoQCoQ,0,1,1968,467
4m,30,102621,1,10,O,green,OCQoQCoCoQ,1,1,908,2909
4m,31,110265,0,10,O,white,CoQCQoCoQC,0,1,2894,502
4m,32,114595,1,10,O,green,OoQCQoCQoC,1,1,1196,257
4m,33,116948,0,10,O,white,QoCQoCoQCo,0,1,1997,502
4m,34,120353,0,10,O,white,oCQoQCoQCo,0,1,1953,494
4m,35,123686,0,10,O,white,oQCoQCQoCQ,0,1,1390,589
4m,36,126585,1,10,O,white,OoCQCQoCoQ,1,1,1493,265
4m,37,129263,0,10,O,green,QCoCoQoQCQ,0,1,868,807
4m,38,131829,0,10,O,white,oQCoQCQCoQ,0,1,2431,439
4m,39,135608,1,10,O,green,OQoCoCQoCQ,1,1,742,445
4m,40,137706,1,10,O,white,OCQoCQoCQo,1,1,1066,175
4m,1,137208,1,10,O,white,OCoQoCQoQC,1,1,1572,372
4m,2,140051,0,10,O,green,oQCoCQoQCo,0,1,1986,2473
4m,3,145416,0,10,O,green,CQoQCoCQoQ,0,1,849,512
4m,4,147696,0,10,O,white,oQCQCoQoCo,0,1,2044,562
4m,5,151202,1,10,O,white,OCoQCQoQCo,1,1,1123,174
4m,6,153375,0,10,O,green,oCQoCQoCQo,0,1,661,498
4m,7,155437,0,10,O,white,QCoCoQCoQC,0,1,532,1256
4m,8,158151,1,10,O,white,OQoCQoCQoC,1,1,1386,260
4m,9,160685,1,10,O,green,OQCoCoQoQC,1,1,979,151
4m,10,162701,0,10,O,green,oQCQoCoQCQ,0,1,1169,389
4m,11,165140,1,10,O,green,OCoQCQoQoC,1,1,1090,565
4m,12,167685,1,10,O,green,OoQCQoCQoC,1,1,725,496
4m,13,169828,1,10,O,white,OCoQoCQoCQ,1,1,1843,208
4m,14,172795,1,10,O,green,OQCoQCoCQo,1,1,1655,254
4m,15,175601,0,10,O,green,oQCoQCQoCo,0,1,1611,671
4m,16,178772,1,10,O,green,OQCoCQoCQo,1,1,1331,205
4m,17,181229,1,10,O,white,OCQoQoCoQC,1,1,1334,310
4m,18,183783,1,10,O,green,OoCQCoQCoQ,1,1,1204,383
4m,19,186274,0,10,O,white,QCoQCoCQoQ,0,1,1547,535
4m,20,189297,1,10,O,green,OQoCoQCQCo,1,1,1501,290
4m,21,191973,0,10,O,white,CoQCoQoCQo,0,1,3210,475
4m,22,196545,0,10,O,green,CoQCoQCQoC,0,1,840,398
4m,23,198689,1,10,O,white,OCoQCQoQCo,1,1,1937,169
4m,24,201713,0,10,O,white,QCoCQoCQoQ,0,1,3484,407
4m,25,206534,0,10,O,green,CQoQCoCoQC,0,1,866,504
4m,26,208801,1,10,O,white,OoCQoCQoCQ,1,1,2429,402
4m,27,212530,0,10,O,green,oCQCoQCoQo,0,1,1038,446
4m,28,214904,1,10,O,green,OoQCQoCQoC,1,1,1410,277
4m,29,217475,0,10,O,green,QCoCQoQCoQ,0,1,1826,1347
4m,30,221534,1,10,O,green,OCQoCoQCQo,1,1,1231,470
4m,31,227455,1,10,O,white,OQCoCQoQoC,1,1,1877,414
4m,32,230672,0,10,O,white,QoCoQCoQCQ,0,1,2284,606
4m,33,234460,1,10,O,white,OoQCQoCoQC,1,1,2340,205
4m,34,237922,0,10,O,white,oQCoQCQCoQ,0,1,1944,898
4m,35,241652,1,10,O,white,OoQCQoCoCQ,1,1,1515,239
4m,36,244298,0,10,O,white,oQCoCQoCQo,0,1,1976,462
4m,37,247624,1,10,O,green,OoCQoCQoCQ,1,1,1443,282
4m,38,250269,0,10,O,green,oQCoCQoCQC,0,1,1233,423
4m,39,252816,0,10,O,white,QoCQoCoQCQ,0,1,2347,1897
4m,40,257954,0,10,O,white,CoQoCQoCQC,0,1,1873,537
