sub,trial,time,numtargs,size,targchar,targcol,stim,resp,corr,rt1,rt2
16w,1,56377,1,10,O,white,OCoQoQCQoC,1,1,2072,4755
16w,2,64082,0,10,O,white,CQoQoCoQCQ,0,1,4134,613
16w,3,69742,0,10,O,white,QoCoCQCoQC,0,1,1098,499
16w,4,72202,1,10,O,white,OCoQCQoCQo,1,1,2788,1810
16w,5,77684,1,10,O,white,OCQoCQoQCo,0,1,4445,2504
16w,6,85483,1,10,O,white,OQCoQCoQCo,1,1,4121,1603
16w,7,92058,1,10,O,white,OoCQoCQCoQ,1,1,3619,899
16w,8,97440,0,10,O,white,CoQCoQoCQo,0,1,3571,622
16w,9,102514,1,10,O,white,OCoQoCQoCQ,1,1,1233,526
16w,10,105152,0,10,O,white,QoCoCQCoQC,7,0,1920,703
16w,11,108684,0,10,O,white,CQoQCoCQoQ,0,1,4162,587
16w,12,114284,0,10,O,white,oCQoCQoCQC,0,1,1314,527
16w,13,116979,0,10,O,white,QoCoCQCoQo,0,1,2286,546
16w,14,120675,1,10,O,white,OoQCoQCoCQ,1,1,1198,1800
16w,15,124523,1,10,O,white,OQoCQCoCoQ,0,1,2976,625
16w,16,128976,1,10,O,white,OCQoQCoCQo,0,1,1925,687
16w,17,132470,0,10,O,white,oQCoQCoQCQ,0,1,1888,460
16w,18,135732,1,10,O,white,OoCQCoQCoQ,1,1,1244,597
16w,19,138424,0,10,O,white,oCQCQoQCoC,0,1,2199,699
16w,20,142177,1,10,O,white,OoCQCoQCoQ,1,1,3743,1448
16w,21,148250,0,10,O,white,oCQoQCQoCo,0,1,1818,671
16w,22,151609,0,10,O,white,CoQoQCoCQC,0,1,1800,1185
16w,23,155483,0,10,O,white,CoQCoQCQoQ,0,1,6650,423
16w,24,163407,1,10,O,white,OCQoCQoCQo,1,1,2825,1872
16w,25,169003,1,10,O,white,OoQCQCoQoC,1,1,1507,2710
16w,26,174072,1,10,O,white,OCoQCoQCQo,1,1,1713,488
16w,27,177140,0,10,O,white,QoCoQCQoCo,0,1,3108,607
16w,28,181738,0,10,O,white,oQCQoCQoCo,0,1,1325,3139
16w,29,187054,0,10,O,white,QCoQCoCoQo,0,1,7419,381
16w,30,195749,0,10,O,white,CQoQoCQCoC,0,1,1542,489
16w,31,201022,1,10,O,white,OCoQoCQoQC,4,0,21,2216
16w,32,204125,1,10,O,white,OoCQCoQoCQ,0,1,2780,774
16w,33,208532,0,10,O,white,oQCQoCoQCo,4,0,703,1031
16w,34,211120,1,10,O,white,OQoCQCoQoC,1,1,2460,1939
16w,35,216370,0,10,O,white,QoCoQCoCQo,0,1,2891,716
16w,36,220830,1,10,O,white,OQCoCoQCoQ,1,1,1061,606
16w,37,223352,1,10,O,white,OoCQCoQoCQ,1,1,1405,997
16w,38,226637,0,10,O,white,QCoQCoCoQC,0,1,6044,652
16w,39,234203,1,10,O,white,OoCQoCQoCQ,1,1,1294,453
16w,40,236816,0,10,O,white,CQoCQoCQoC,0,1,3499,870
16w,1,13329,0,10,O,white,oQCQoCoQCQ,0,1,1816,390
16w,2,16425,0,10,O,white,QoCoQCoCQo,0,1,2257,550
16w,3,20141,1,10,O,white,OoCQCoQCQo,1,1,1815,673
16w,4,23527,1,10,O,white,OQoCoQCQCo,0,1,1482,416
16w,5,26359,0,10,O,white,CQoCoQoQCQ,0,1,2700,593
16w,6,30540,1,10,O,white,OCoQoQCQoC,1,1,1057,107
16w,7,32589,0,10,O,white,QoCQoCQCoC,0,1,1722,603
16w,8,35793,0,10,O,white,oQCQoCQoCo,0,1,2250,404
16w,9,39326,0,10,O,white,CoQoCQoCQo,0,1,2112,472
16w,10,42800,1,10,O,white,OCQoCoQoCQ,0,1,3810,635
16w,11,48128,0,10,O,white,CoQoQCoQCQ,0,1,1385,705
16w,12,51113,1,10,O,white,OoQCQCoCoQ,1,1,2968,219
16w,13,55179,1,10,O,white,OCQoQCoQoC,1,1,2342,92
16w,14,58537,0,10,O,white,oQCQoCoQCQ,0,1,3984,522
16w,15,63927,1,10,O,white,OCoQCoQCoQ,1,1,2132,185
16w,16,67122,1,10,O,white,OCQoCQoQCo,0,1,2021,2274
16w,17,72297,0,10,O,white,oQCoCQCoQC,0,1,1168,550
16w,18,74934,1,10,O,white,OCQoCQoQCo,1,1,2394,707
16w,19,78947,0,10,O,white,oQCoCQoCQo,0,1,4987,1148
16w,20,85986,1,10,O,white,OCQoQCoQoC,1,1,1975,1103
16w,21,89938,0,10,O,white,QoCoQCoCQo,0,1,1069,666
16w,22,92563,1,10,O,white,OQoCoQCoQC,1,1,1457,175
16w,23,95097,1,10,O,white,OCQoQoCQoC,1,1,1484,558
16w,24,98040,1,10,O,white,OQCoCQoCoQ,1,1,14008,439
16w,25,113452,0,10,O,white,oCQCQoCQoQ,0,1,1472,532
16w,26,116351,0,10,O,white,CoQCoQCoQC,0,1,1676,525
16w,27,119435,1,10,O,white,OQoCoCQCQo,1,1,1215,120
16w,28,121677,0,10,O,white,QCoQCoQCoQ,0,1,2306,504
16w,29,125369,0,10,O,white,CQoCQoCQoC,0,1,1481,797
16w,30,128592,1,10,O,white,OoQCoQCQoC,0,1,1754,517
16w,31,135394,0,10,O,white,oCQCQoQCoC,0,1,2837,514
16w,32,139666,1,10,O,white,OoCQoQCoCQ,1,1,892,81
16w,33,141520,0,10,O,white,QoCoQCQCoQ,0,1,2891,493
16w,34,145775,1,10,O,white,OoCQCoQoQC,1,1,1223,78
16w,35,147960,1,10,O,white,OoQCoQCoQC,1,1,2322,425
16w,36,151630,0,10,O,white,QoCoCQoCQC,0,1,1353,613
16w,37,154487,1,10,O,white,OCoQCoQoCQ,1,1,1392,2248
16w,38,159001,0,10,O,white,oCQCoQoCQo,0,1,4653,873
16w,39,165403,0,10,O,white,CQoQoCQoCQ,0,1,3609,460
16w,40,170370,1,10,O,white,OQoCQoCQoC,1,1,3107,1847
16w,1,16607,1,10,O,white,OQCoQCoCoQ,1,1,992,112
16w,2,18619,0,10,O,white,QCoQCoQoCo,0,1,13256,462
16w,3,33244,0,10,O,white,oCQCQoQoCQ,0,1,3578,621
16w,4,38327,1,10,O,white,OCQoCQoQCo,1,1,4527,2013
16w,5,45741,1,10,O,white,OoQCoQCoQC,0,1,4784,1184
16w,6,52607,0,10,O,white,oCQCoQCoQC,0,1,3248,456
16w,7,57219,0,10,O,white,CQoCQoQCoC,0,1,2869,523
16w,8,61492,1,10,O,white,OCQoQCoQCo,1,1,1830,177
16w,9,64396,0,10,O,white,CQoQoCoQCo,0,1,3326,372
16w,10,68965,1,10,O,white,OCoQoCQCQo,1,1,5834,639
16w,11,76325,0,10,O,white,CQoQCoQCoC,0,1,3270,522
16w,12,81035,0,10,O,white,CoQoCQCQoQ,0,1,1740,626
16w,13,84288,1,10,O,white,OCQoCQoQCo,1,1,3302,1673
16w,14,90162,0,10,O,white,QCoQCoCoQo,0,1,6210,568
16w,15,97839,1,10,O,white,OQoCoQCQCo,1,1,2056,233
16w,16,101042,0,10,O,white,CQoQCoQoCQ,0,1,1869,510
16w,17,104317,1,10,O,white,OoQCQCoQCo,1,1,3527,93
16w,18,108813,0,10,O,white,CQoCoQoQCQ,0,1,2619,513
16w,19,112832,1,10,O,white,OCoQoCQCoQ,1,1,2360,205
16w,20,116299,1,10,O,white,OCQoCQoCQo,1,1,3343,76
16w,21,120635,1,10,O,white,OoQCoCQCQo,1,1,1266,97
16w,22,122875,1,10,O,white,OoCQoQCoQC,1,1,2940,99
16w,23,126812,0,10,O,white,CQoQoCoQCo,0,1,2480,590
16w,24,130780,0,10,O,white,oCQCQoCQoC,0,1,1898,554
16w,25,134134,0,10,O,white,CQoQoCQoCo,0,1,2923,464
16w,26,138419,1,10,O,white,OCQoQoCoCQ,1,1,754,110
16w,27,140158,0,10,O,white,QCoCQoCoQo,0,1,4157,574
16w,28,145774,0,10,O,white,oCQoCQCoQC,8,0,1930,1403
16w,29,150024,1,10,O,white,OQCoQCoCQo,1,1,1772,90
16w,30,152790,0,10,O,white,CQoQCoCQoC,0,1,2563,489
16w,31,158840,1,10,O,white,OQoCoQCQCo,0,1,1371,892
16w,32,162010,1,10,O,white,OQCoQoCoQC,1,1,2402,1881
16w,33,167195,0,10,O,white,oQCQoCoQCQ,0,1,3071,547
16w,34,171719,0,10,O,white,oQCoQCQCoQ,0,1,2715,552
16w,35,175869,1,10,O,white,OoCQoCQCoQ,1,1,3744,183
16w,36,180674,1,10,O,white,OCQoCoQoCQ,1,1,4109,83
16w,37,185749,0,10,O,white,QoCoQCQoCQ,0,1,2855,539
16w,38,190028,1,10,O,white,OoQCoQCoQC,1,1,1619,111
16w,39,192670,1,10,O,white,OQCoCQoCQo,1,1,4387,1341
16w,40,199294,0,10,O,white,oQCQoCoQCo,0,1,1354,663
16w,1,15998,1,10,O,white,OCoQoCQCoQ,1,1,1583,2130
16w,2,20598,0,10,O,white,QoCQoCoQCQ,0,1,40848,418
16w,3,62754,0,10,O,white,oCQCoQCoQo,0,1,2069,1370
16w,4,67064,1,10,O,white,OCoQCQoQoC,1,1,1437,485
16w,5,69856,0,10,O,white,oCQoCQoQCQ,0,1,5214,1151
16w,6,77111,1,10,O,white,OoCQoCQoCQ,1,1,896,85
16w,7,79006,1,10,O,white,OQCoQCoQCo,0,1,1175,425
16w,8,81526,0,10,O,white,QoCQoCQCoQ,0,1,3753,371
16w,9,86558,1,10,O,white,OQCoQCoQCo,0,1,1282,530
16w,10,89256,1,10,O,white,OoCQoCQoCQ,0,1,1650,424
16w,11,92212,0,10,O,white,CQoQCoCoQo,0,1,3773,358
16w,12,97231,0,10,O,white,CQoCoQoQCo,0,1,2259,516
16w,13,100897,0,10,O,white,CoQoCQoCQo,0,1,2539,566
16w,14,104939,0,10,O,white,QCoCQoQCoC,0,1,3497,557
16w,15,109884,1,10,O,white,OoQCoCQCoQ,1,1,909,655
16w,16,112332,0,10,O,white,CoQoCQCQoQ,0,1,1614,560
16w,17,115403,1,10,O,white,OCQoQCoCQo,0,1,1747,514
16w,18,118554,0,10,O,white,CQoCQoCoQC,0,1,3934,461
16w,19,123853,1,10,O,white,OoQCoCQCQo,1,1,3097,123
16w,20,127941,0,10,O,white,QoCQoCoQCQ,0,1,2633,690
16w,21,132147,0,10,O,white,oCQCQoQoCQ,0,1,2481,469
16w,22,135986,1,10,O,white,OQCoCQoCQo,1,1,2168,688
16w,23,139734,0,10,O,white,oCQCoQCQoC,0,1,6489,387
16w,24,147534,1,10,O,white,OCoQoQCQoC,1,1,1946,103
16w,25,150470,0,10,O,white,oQCoQCQoCQ,0,1,1903,535
16w,26,153796,1,10,O,white,OoCQoCQoCQ,1,1,2088,98
16w,27,156863,1,10,O,white,OoCQoCQCQo,1,1,1390,86
16w,28,159226,1,10,O,white,OQCoCQoQCo,0,1,3001,479
16w,29,163584,0,10,O,white,QoCQCoQCoC,0,1,1386,1020
16w,30,166889,0,10,O,white,oQCoQCQCoC,0,1,1976,593
16w,31,173329,1,10,O,white,OCoQoQCQCo,1,1,1469,82
16w,32,175828,1,10,O,white,OoCQoQCQCo,1,1,2047,88
16w,33,178844,1,10,O,white,OCQoQCoQoC,1,1,2223,50
16w,34,182017,1,10,O,white,OoQCQCoQCo,0,1,2063,1065
16w,35,186026,0,10,O,white,CQoQCoCQoC,0,1,6611,380
16w,36,193881,0,10,O,white,oCQCoQoCQC,0,1,1926,1230
16w,37,197909,1,10,O,white,OQoCQoCQCo,1,1,1554,102
16w,38,200444,0,10,O,white,oQCQCoQCoQ,0,1,2296,520
16w,39,204193,0,10,O,white,oQCoCQCoQC,0,1,5824,411
16w,40,211332,1,10,O,white,OoCQCoQoQC,1,1,1259,147
