sub,trial,time,numtargs,size,targchar,targcol,stim,resp,corr,rt1,rt2
6w,1,18986,1,10,O,white,OCQoQoCQCo,1,1,1045,778
6w,2,21718,0,10,O,white,QoCoQCQoCQ,0,1,2741,546
6w,3,25892,0,10,O,white,oQCoQCoQCQ,0,1,1334,4274
6w,4,32399,0,10,O,white,QoCoQCQoCQ,0,1,2090,561
6w,5,35942,1,10,O,white,OQCoQoCoQC,1,1,1495,449
6w,6,38789,0,10,O,white,QCoCQoQCoQ,0,1,1572,700
6w,7,41973,1,10,O,white,OCoQCQoCQo,0,1,1535,600
6w,8,45031,1,10,O,white,OQoCoQCoQC,1,1,2289,1038
6w,9,49262,0,10,O,white,oQCoQCoCQC,0,1,4568,580
6w,10,55302,1,10,O,white,OCoQCQoQCo,1,1,2710,874
6w,11,59768,1,10,O,white,OQoCQCoCoQ,0,1,2166,1178
6w,12,64003,0,10,O,white,CQoCQoQCoC,0,1,1682,1348
6w,13,67923,0,10,O,white,oQCQCoCQoQ,0,1,3096,981
6w,14,72931,1,10,O,white,OoQCQCoCQo,1,1,1790,1341
6w,15,76980,0,10,O,white,QoCQCoCoQC,0,1,2503,601
6w,16,80979,1,10,O,white,OoQCQoCQCo,0,1,1406,791
6w,17,84065,1,10,O,white,OCoQoCQoCQ,1,1,1156,1077
6w,18,87218,1,10,O,white,OCoQoCQCoQ,1,1,1216,649
6w,19,90001,1,10,O,white,OCQoCQoQCo,3,0,10,2690
6w,20,93593,0,10,O,white,CoQoQCoCQo,0,1,4999,1130
6w,21,100621,1,10,O,white,OQCoCoQCoQ,1,1,1786,259
6w,22,103557,1,10,O,white,OCoQoQCQoC,1,1,2272,1318
6w,23,108102,0,10,O,white,QCoCQoCoQo,0,1,2353,740
6w,24,112115,0,10,O,white,CoQCoQCoQo,0,1,3494,2117
6w,25,118635,0,10,O,white,QoCoQCQCoQ,0,1,4056,820
6w,26,124397,0,10,O,white,oQCQoCQoCQ,0,1,5260,728
6w,27,131286,0,10,O,white,oCQoCQoQCQ,0,1,3559,767
6w,28,136504,1,10,O,white,OQoCoCQoCQ,1,1,2989,3837
6w,29,144242,0,10,O,white,QCoCQoQCoC,0,1,2053,542
6w,30,147731,1,10,O,white,OCQoQoCQCo,1,1,1420,99
6w,31,154759,1,10,O,white,OQCoCQoCQo,7,0,209,4476
6w,32,160411,0,10,O,white,oQCoCQCoQo,0,1,3497,681
6w,33,165486,0,10,O,white,QoCoQCoQCQ,0,1,2029,666
6w,34,169087,1,10,O,white,OoQCQoCQoC,0,1,2799,1795
6w,35,174573,0,10,O,white,CoQCoQCQoQ,0,1,2222,598
6w,36,178290,1,10,O,white,OCoQCoQCoQ,1,1,1712,567
6w,37,181454,1,10,O,white,OCQoQCoCoQ,1,1,2629,659
6w,38,185617,1,10,O,white,OoQCoCQoCQ,1,1,2507,499
6w,39,189513,0,10,O,white,oQCQoCQCoC,0,1,3031,821
6w,40,194258,0,10,O,white,QCoCoQCoQC,0,1,6309,826
6w,1,24166,0,10,O,white,QoCQoCoQCo,0,1,1465,708
6w,2,27232,1,10,O,white,OoQCQCoQCo,1,1,1420,653
6w,3,30190,1,10,O,white,OCoQCoQCoQ,1,1,1206,568
6w,4,32866,1,10,O,white,OoCQoCQoCQ,0,1,1085,672
6w,5,35530,0,10,O,white,QCoQoCQoCQ,0,1,1383,557
6w,6,38389,1,10,O,white,OQCoQCoQCo,1,1,1690,617
6w,7,41586,0,10,O,white,QCoCQoCQoC,0,1,1441,624
6w,8,44576,1,10,O,white,OCoQoCQoCQ,1,1,1463,278
6w,9,47213,1,10,O,white,OoQCoQCoQC,0,1,1773,573
6w,10,50441,1,10,O,white,OCQoQCoQCo,1,1,3103,905
6w,11,55387,1,10,O,white,OoQCQoCoQC,1,1,1389,414
6w,12,58093,0,10,O,white,CQoCQoQCoQ,0,1,2735,695
6w,13,62443,0,10,O,white,QoCoQCQoCQ,0,1,2400,683
6w,14,66417,0,10,O,white,oCQCoQoCQo,0,1,1565,695
6w,15,69592,1,10,O,white,OCQoCQoCoQ,1,1,1297,483
6w,16,72258,0,10,O,white,CQoCoQoQCQ,0,1,2244,534
6w,17,75942,1,10,O,white,OQoCoQCQoC,1,1,992,129
6w,18,77981,1,10,O,white,OQCoQoCQCo,1,1,2336,247
6w,19,81457,0,10,O,white,QoCoQCQoCo,0,1,1518,1050
6w,20,84909,0,10,O,white,CoQoQCQoCQ,0,1,2640,491
6w,21,88934,1,10,O,white,OCQoCoQoCQ,1,1,2897,229
6w,22,92962,0,10,O,white,QCoQCoQCoC,0,1,2476,780
6w,23,97099,1,10,O,white,OoCQoQCQoC,1,1,2784,410
6w,24,101169,1,10,O,white,OQCoQCoCoQ,0,1,1661,617
6w,25,104351,1,10,O,white,OoCQoQCoQC,1,1,1460,320
6w,26,107026,1,10,O,white,OQoCQoCoQC,1,1,1798,1357
6w,27,111071,0,10,O,white,CQoQCoCQoQ,0,1,2054,613
6w,28,114646,1,10,O,white,OoQCoQCoQC,1,1,1668,242
6w,29,117457,0,10,O,white,QCoQCoCoQC,0,1,1621,592
6w,30,120600,1,10,O,white,OoCQCoQoCQ,1,1,2159,1197
6w,31,127807,0,10,O,white,oCQCQoCQoQ,0,1,4315,550
6w,32,133644,0,10,O,white,CQoCoQoCQo,0,1,2110,663
6w,33,137321,0,10,O,white,oCQCQoCoQo,0,1,2108,516
6w,34,140833,0,10,O,white,oQCoQCQoCQ,0,1,2778,692
6w,35,145187,0,10,O,white,CoQCoQCoQC,0,1,2353,584
6w,36,149016,1,10,O,white,OQCoQoCoQC,0,1,2342,686
6w,37,153005,0,10,O,white,CoQoCQCoQo,0,1,2949,1031
6w,38,157908,1,10,O,white,OoQCoQCoCQ,1,1,2519,372
6w,39,161737,0,10,O,white,oCQoCQoCQC,0,1,1804,690
6w,40,165128,0,10,O,white,CoQoCQoCQo,0,1,1968,1512
6w,1,15615,0,10,O,white,CQoCQoQoCo,0,1,1899,793
6w,2,19202,0,10,O,white,CoQCoQoCQo,0,1,1762,719
6w,3,22571,0,10,O,white,oQCoQCoQCo,0,1,1826,651
6w,4,25962,1,10,O,white,OoCQCoQCoQ,1,1,1820,1224
6w,5,29921,0,10,O,white,oCQCoQoCQo,0,1,241,1340
6w,6,32397,1,10,O,white,OCoQCoQCQo,0,1,1849,581
6w,7,35721,1,10,O,white,OQCoQCoCoQ,1,1,2543,454
6w,8,39641,0,10,O,white,oCQCQoQCoC,0,1,1964,611
6w,9,43123,0,10,O,white,CoQCQoQCoQ,0,1,1976,651
6w,10,46653,0,10,O,white,CQoQCoCoQo,0,1,5862,666
6w,11,54076,0,10,O,white,oQCoCQCoQo,0,1,986,867
6w,12,56804,0,10,O,white,CQoCQoQoCQ,0,1,1486,561
6w,13,59742,1,10,O,white,OoQCQoCQoC,0,1,1356,580
6w,14,62570,1,10,O,white,OoCQoCQoCQ,1,1,1350,572
6w,15,65440,1,10,O,white,OCoQCoQCQo,1,1,10432,1374
6w,16,78171,0,10,O,white,CQoCQoCQoQ,0,1,2282,706
6w,17,82072,0,10,O,white,CQoQCoQCoQ,0,1,4079,657
6w,18,87719,0,10,O,white,oCQoCQoCQo,0,1,2001,673
6w,19,91300,1,10,O,white,OoCQoCQoCQ,1,1,1212,446
6w,20,93898,0,10,O,white,QoCoQCQoCo,0,1,247,1427
6w,21,96463,1,10,O,white,OQCoCoQoQC,1,1,1361,192
6w,22,98937,1,10,O,white,OCQoQCoQCo,1,1,904,105
6w,23,100830,1,10,O,white,OoCQoQCQoC,1,1,1531,752
6w,24,104020,1,10,O,white,OoQCoQCoQC,1,1,1450,204
6w,25,106573,1,10,O,white,OoQCoCQCQo,1,1,5875,326
6w,26,113679,1,10,O,white,OQCoCQoCQo,1,1,1175,104
6w,27,115858,1,10,O,white,OoQCQCoQCo,1,1,1056,130
6w,28,117956,1,10,O,white,OoQCQCoQCo,1,1,2034,1955
6w,29,122833,0,10,O,white,QoCQoCQoCo,0,1,1824,571
6w,30,126149,0,10,O,white,CQoCQoQCoC,0,1,5854,527
6w,31,136002,0,10,O,white,CQoQCoCQoQ,0,1,1985,697
6w,32,139601,1,10,O,white,OQCoQCoCQo,1,1,1650,470
6w,33,142609,0,10,O,white,oCQCoQoQCo,0,1,1968,472
6w,34,145986,0,10,O,white,CQoCQoQCoQ,0,1,2083,603
6w,35,149559,1,10,O,white,OoQCQoCQoC,1,1,1708,177
6w,36,152358,1,10,O,white,OCQoCQoQCo,0,1,2603,530
6w,37,156402,0,10,O,white,oQCoQCQoCQ,0,1,2028,1061
6w,38,160389,1,10,O,white,OCoQoCQCQo,1,1,2617,197
6w,39,164112,1,10,O,white,OQoCoQCQCo,1,1,2227,140
6w,40,167402,0,10,O,white,CQoQCoQCoQ,0,1,2390,600
6w,1,56042,0,10,O,white,QoCoQCoQCo,0,1,1649,661
6w,2,59263,0,10,O,white,oQCQoCQoCQ,0,1,1987,746
6w,3,62887,0,10,O,white,oQCQoCoCQC,0,1,960,998
6w,4,65757,1,10,O,white,OoCQCoQoCQ,1,1,854,405
6w,5,67897,1,10,O,white,OQCoCoQCoQ,1,1,1106,188
6w,6,70082,0,10,O,white,oCQCoQCoQo,0,1,2035,1175
6w,7,74197,0,10,O,white,QCoQoCoQCo,0,1,1040,810
6w,8,76927,1,10,O,white,OQCoCoQCoQ,0,1,991,1098
6w,9,79926,0,10,O,white,oQCQoCoCQo,0,1,1388,592
6w,10,82776,1,10,O,white,OQoCoQCoQC,1,1,1246,217
6w,11,85135,0,10,O,white,QoCoQCoQCQ,0,1,1828,646
6w,12,88538,0,10,O,white,oCQCQoQCoQ,0,1,1629,597
6w,13,91694,1,10,O,white,OCoQCoQCQo,1,1,1253,240
6w,14,94091,1,10,O,white,OQCoQoCQCo,1,1,2292,696
6w,15,97999,1,10,O,white,OCoQoQCoCQ,0,1,1755,588
6w,16,101249,0,10,O,white,CQoQCoCQoC,0,1,1970,1031
6w,17,105170,0,10,O,white,QCoQCoQCoQ,0,1,1788,561
6w,18,108421,0,10,O,white,oCQCQoCQoC,0,1,2358,1419
6w,19,113082,1,10,O,white,OCoQCoQoQC,1,1,1773,279
6w,20,116064,1,10,O,white,OCQoQCoQoC,1,1,1746,463
6w,21,119172,1,10,O,white,OoCQCQoCQo,1,1,2748,772
6w,22,123584,0,10,O,white,CQoQCoQCoQ,0,1,2534,511
6w,23,127514,1,10,O,white,OCQoQCoCoQ,1,1,2413,264
6w,24,131097,1,10,O,white,OoQCQoCoQC,1,1,2367,300
6w,25,134652,0,10,O,white,CQoCoQoQCQ,0,1,3428,557
6w,26,139535,0,10,O,white,QoCQCoCQoQ,0,1,3126,490
6w,27,144042,1,10,O,white,OoCQCoQCQo,1,1,2187,395
6w,28,147516,0,10,O,white,oQCoQCQCoC,0,1,1443,686
6w,29,150549,0,10,O,white,oCQCQoQCoC,0,1,1961,540
6w,30,153940,1,10,O,white,OoQCQCoCQo,1,1,2035,423
6w,31,159630,0,10,O,white,QCoQoCQoCQ,0,1,2354,647
6w,32,163566,1,10,O,white,OoCQoCQoCQ,1,1,1899,193
6w,33,166558,1,10,O,white,OCQoCQoCoQ,1,1,1673,1389
6w,34,170539,0,10,O,white,QoCQoCoQCo,0,1,2412,591
6w,35,174449,1,10,O,white,OQCoCQoCQo,1,1,1364,279
6w,36,176982,1,10,O,white,OoCQCQoQoC,1,1,1271,305
6w,37,179466,0,10,O,white,CoQCQoCoQo,0,1,1476,615
6w,38,182470,1,10,O,white,OQoCoQCoQC,1,1,2601,685
6w,39,186668,0,10,O,white,CoQoCQoQCQ,0,1,2784,502
6w,40,190849,1,10,O,white,OoQCoQCQCo,1,1,1980,1239
