sub,trial,time,numtargs,size,targchar,targcol,stim,resp,corr,rt1,rt2
11g,1,41569,0,10,O,green,CQoCQoCQoQ,0,1,10656,1991
11g,2,55128,0,10,O,green,CoQoCQCoQo,0,1,5905,815
11g,3,62733,1,10,O,green,OQCoQCoCQo,1,1,1237,425
11g,4,65280,0,10,O,green,oQCoQCoQCQ,0,1,2159,660
11g,5,69017,0,10,O,green,oCQoCQoQCo,0,1,788,574
11g,6,71273,1,10,O,green,OQoCQoCQCo,1,1,1558,520
11g,7,74258,0,10,O,green,QoCQoCQoCQ,0,1,815,543
11g,8,76548,0,10,O,green,oCQCoQCQoQ,0,1,1386,708
11g,9,79522,1,10,O,green,OCoQoQCoCQ,1,1,1257,703
11g,10,82393,0,10,O,green,QCoQoCoCQo,0,1,2268,528
11g,11,86090,0,10,O,green,CQoCoQCoQC,0,1,3790,749
11g,12,91542,1,10,O,green,OoCQCoQoQC,1,1,695,686
11g,13,93810,1,10,O,green,OQoCoCQoCQ,1,1,987,284
11g,14,95986,0,10,O,green,oQCoQCoQCo,0,1,1423,451
11g,15,98753,0,10,O,green,QoCoCQoCQo,0,1,1976,991
11g,16,102626,1,10,O,green,OCoQCoQoCQ,1,1,1506,462
11g,17,105480,0,10,O,green,QoCoQCoQCQ,0,1,798,580
11g,18,107751,1,10,O,green,OoCQCoQCoQ,1,1,797,1583
11g,19,111050,1,10,O,green,OoCQoQCoQC,1,1,1324,450
11g,20,113732,1,10,O,green,OoCQoQCoCQ,1,1,710,412
11g,21,115744,1,10,O,green,OCoQoCQCoQ,1,1,732,452
11g,22,117829,1,10,O,green,OQCoCQoQCo,1,1,1363,259
11g,23,120365,1,10,O,green,OoCQCoQCoQ,1,1,1007,508
11g,24,122781,1,10,O,green,OCoQCoQoQC,1,1,866,893
11g,25,125435,1,10,O,green,OoQCQoCQoC,1,1,1008,653
11g,26,128000,0,10,O,green,QCoQCoQoCo,0,1,1970,574
11g,27,131451,0,10,O,green,QCoQoCoCQo,0,1,1777,482
11g,28,134603,0,10,O,green,QCoCQoQoCo,0,1,986,1256
11g,29,137765,0,10,O,green,QCoQCoQCoC,0,1,625,645
11g,30,139940,1,10,O,green,OoCQoCQoQC,1,1,626,522
11g,31,145437,0,10,O,green,oCQoCQoQCQ,0,1,1053,606
11g,32,148015,1,10,O,green,OQCoCoQoQC,1,1,756,456
11g,33,150138,1,10,O,green,OQCoQCoQCo,1,1,806,461
11g,34,152300,0,10,O,green,oQCQoCoQCQ,0,1,3195,611
11g,35,157014,0,10,O,green,oQCQCoQoCo,0,1,1039,701
11g,36,159648,1,10,O,green,OoQCoCQoQC,1,1,629,439
11g,37,161627,0,10,O,green,QCoCQoCQoC,0,1,1313,488
11g,38,164328,0,10,O,green,QoCQoCQCoC,0,1,1001,586
11g,39,166803,1,10,O,green,OQoCoQCoQC,1,1,668,451
11g,40,168809,1,10,O,green,OQoCQoCQoC,1,1,995,425
11g,1,72478,1,10,O,green,OCoQCQoCQo,1,1,1884,564
11g,2,75816,1,10,O,green,OCQoCQoCQo,1,1,1216,508
11g,3,78422,0,10,O,green,oCQCQoQoCo,0,1,970,760
11g,4,81064,0,10,O,green,CoQoCQoQCQ,0,1,850,2595
11g,5,85423,1,10,O,green,OCoQCoQCoQ,1,1,544,694
11g,6,87564,0,10,O,green,oCQCoQCQoC,0,1,1091,588
11g,7,90125,0,10,O,green,CoQoCQoCQC,0,1,1429,713
11g,8,93170,1,10,O,green,OQoCoQCoQC,1,1,536,574
11g,9,95186,0,10,O,green,QoCoQCoQCo,0,1,821,603
11g,10,97521,0,10,O,green,QoCQoCQoCo,0,1,947,1066
11g,11,100448,1,10,O,green,OQCoCQoQCo,1,1,578,602
11g,12,102532,1,10,O,green,OCQoCoQoCQ,1,1,2037,495
11g,13,105953,0,10,O,green,CQoCQoQCoQ,0,1,987,714
11g,14,108547,1,10,O,green,OQCoQCoCQo,1,1,829,442
11g,15,110708,0,10,O,green,QCoCoQCoQC,0,1,1670,675
11g,16,113945,0,10,O,green,CoQCoQoCQo,0,1,1006,747
11g,17,116581,0,10,O,green,oQCoCQCoQo,0,1,1021,745
11g,18,119253,1,10,O,green,OQoCQCoCQo,1,1,799,470
11g,19,121470,0,10,O,green,oCQCQoCQoQ,0,1,1944,608
11g,20,124914,1,10,O,green,OoCQoQCQoC,1,1,1761,477
11g,21,128034,1,10,O,green,OoCQCoQoCQ,1,1,852,492
11g,22,130275,0,10,O,green,oCQoQCQoCQ,0,1,1024,754
11g,23,132953,1,10,O,green,OoQCoQCoQC,1,1,1058,510
11g,24,135417,0,10,O,green,QoCQCoQCoC,0,1,12372,1364
11g,25,150060,0,10,O,green,QoCoCQoCQC,0,1,3291,559
11g,26,154820,1,10,O,green,OCQoCQoCoQ,1,1,995,529
11g,27,157254,1,10,O,green,OQoCQoCoQC,0,1,1756,4250
11g,28,164172,0,10,O,green,QoCQoCQoCQ,0,1,791,693
11g,29,166554,1,10,O,green,OCQoQCoCQo,1,1,1138,591
11g,30,169194,1,10,O,green,OoQCQoCoCQ,1,1,691,554
11g,31,174573,0,10,O,green,CQoCoQoQCo,0,1,1665,552
11g,32,177716,1,10,O,green,OQCoCQoQCo,1,1,548,573
11g,33,179728,1,10,O,green,OoCQoCQCoQ,1,1,997,512
11g,34,182127,0,10,O,green,QCoCQoQCoQ,0,1,921,708
11g,35,184702,1,10,O,green,OCQoQCoQCo,1,1,666,513
11g,36,186775,0,10,O,green,oQCoQCoCQo,0,1,1169,590
11g,37,189472,1,10,O,green,OQCoCoQCoQ,1,1,858,495
11g,38,191729,0,10,O,green,QoCQCoQoCo,0,1,2306,611
11g,39,195535,0,10,O,green,CQoQoCQCoC,0,1,1527,572
11g,40,198541,1,10,O,green,OoCQoQCQCo,1,1,550,622
11g,1,112184,1,10,O,green,OQCoCoQoCQ,1,1,1279,908
11g,2,115253,0,10,O,green,CQoQCoCQoQ,0,1,1969,651
11g,3,118780,1,10,O,green,OQCoCQoQCo,1,1,1429,370
11g,4,121459,1,10,O,green,OCQoQoCoQC,1,1,1873,244
11g,5,124480,0,10,O,green,CQoQCoQCoC,0,1,1980,546
11g,6,127903,0,10,O,green,QCoCQoQCoQ,0,1,1268,691
11g,7,130754,1,10,O,green,OQoCoQCQCo,1,1,995,243
11g,8,132884,0,10,O,green,oCQCoQoCQo,0,1,1995,651
11g,9,136490,1,10,O,green,OCQoCQoQCo,1,1,653,719
11g,10,138770,1,10,O,green,OCQoQoCoQC,1,1,689,444
11g,11,140805,1,10,O,green,OCQoQCoQoC,1,1,1229,435
11g,12,143388,0,10,O,green,QoCQoCoCQo,0,1,1298,687
11g,13,146265,0,10,O,green,QoCQoCQoCo,0,1,1035,875
11g,14,149063,0,10,O,green,QCoCQoCoQC,0,1,755,640
11g,15,151376,0,10,O,green,CQoCQoQoCQ,0,1,2031,555
11g,16,154843,0,10,O,green,oCQCoQoQCQ,0,1,942,798
11g,17,157487,0,10,O,green,QCoCoQCoQo,0,1,933,605
11g,18,159914,1,10,O,green,OCQoCoQCoQ,1,1,1626,459
11g,19,162894,1,10,O,green,OoQCoQCoCQ,1,1,744,820
11g,20,165401,0,10,O,green,CoQoCQoCQC,0,1,882,889
11g,21,168069,1,10,O,green,OQoCoCQCQo,1,1,1453,642
11g,22,171049,1,10,O,green,OQCoQCoCoQ,1,1,685,717
11g,23,173358,0,10,O,green,QoCQoCoQCo,0,1,1111,542
11g,24,175942,0,10,O,green,oQCoQCQoCQ,0,1,1270,608
11g,25,178722,0,10,O,green,CoQoQCoCQC,0,1,1218,510
11g,26,181335,1,10,O,green,OCoQCoQoQC,1,1,838,1591
11g,27,184720,1,10,O,green,OCoQCoQCQo,1,1,1745,434
11g,28,187815,0,10,O,green,oQCQoCQCoC,0,1,1423,610
11g,29,190754,1,10,O,green,OQoCoQCoCQ,1,1,946,532
11g,30,193145,1,10,O,green,OCQoQoCoCQ,1,1,1067,668
11g,31,198093,0,10,O,green,CQoCQoCQoQ,0,1,823,867
11g,32,200682,1,10,O,green,OoQCQoCoQC,1,1,893,596
11g,33,203089,0,10,O,green,CQoCoQCQoQ,0,1,2178,536
11g,34,206750,1,10,O,green,OCQoCQoCQo,1,1,1465,475
11g,35,209599,1,10,O,green,OoQCQoCoQC,1,1,842,531
11g,36,211882,0,10,O,green,QoCoQCQCoQ,0,1,1482,807
11g,37,215055,0,10,O,green,CQoQCoCQoQ,0,1,889,663
11g,38,217522,1,10,O,green,OQCoQCoCQo,1,1,1679,478
11g,39,220609,0,10,O,green,oQCoQCQCoQ,0,1,1021,693
11g,40,223211,1,10,O,green,OoCQoQCoQC,1,1,725,578
11g,1,12334,0,10,O,green,QCoCQoCQoC,0,1,1129,582
11g,2,14954,1,10,O,green,OCoQoCQoCQ,1,1,759,1056
11g,3,17656,1,10,O,green,OCQoQoCoQC,1,1,787,689
11g,4,20020,0,10,O,green,QCoCoQoCQC,0,1,813,656
11g,5,22420,0,10,O,green,QoCoQCQoCo,0,1,872,615
11g,6,24799,0,10,O,green,QCoQCoQCoQ,0,1,842,486
11g,7,27039,0,10,O,green,oQCQoCQoCo,0,1,1280,414
11g,8,29624,1,10,O,green,OQoCQoCoCQ,1,1,908,319
11g,9,31749,0,10,O,green,QoCQoCQCoQ,0,1,1709,373
11g,10,34755,0,10,O,green,QoCQoCoQCo,0,1,901,490
11g,11,37034,1,10,O,green,OoQCoQCQCo,1,1,1067,224
11g,12,39220,0,10,O,green,CoQoCQCQoC,0,1,1535,838
11g,13,42523,1,10,O,green,OCoQCQoQoC,1,1,882,232
11g,14,44538,1,10,O,green,OCoQCQoQCo,1,1,795,80
11g,15,46300,1,10,O,green,OQCoQCoCQo,1,1,761,69
11g,16,48028,0,10,O,green,oQCQCoQCoQ,0,1,1778,377
11g,17,51087,1,10,O,green,OoQCoQCoQC,1,1,822,53
11g,18,52861,1,10,O,green,OCQoCoQoCQ,1,1,1425,39
11g,19,55200,0,10,O,green,oQCQCoQoCo,0,1,936,348
11g,20,57370,0,10,O,green,CoQCQoQCoC,0,1,868,484
11g,21,59650,1,10,O,green,OQCoCQoCoQ,1,1,838,2179
11g,22,63552,1,10,O,green,OQCoQCoQCo,1,1,790,768
11g,23,66038,0,10,O,green,oQCQoCoQCo,0,1,1167,648
11g,24,68741,0,10,O,green,oCQoCQCQoC,0,1,1236,469
11g,25,71339,1,10,O,green,OoQCQoCQoC,1,1,1229,20
11g,26,73475,1,10,O,green,OoCQCoQoQC,1,1,1007,72
11g,27,75438,1,10,O,green,OoQCoCQoCQ,1,1,3102,57
11g,28,79496,0,10,O,green,oQCoQCoQCQ,0,1,1076,596
11g,29,82051,0,10,O,green,QoCQoCoQCQ,0,1,1063,389
11g,30,84374,0,10,O,green,CQoQoCQoCo,0,1,1861,409
11g,31,90204,1,10,O,green,OQCoQoCQoC,1,1,1361,78
11g,32,92550,1,10,O,green,OQoCQoCoQC,1,1,962,18
11g,33,94427,0,10,O,green,QCoCQoQoCQ,0,1,1340,358
11g,34,97036,0,10,O,green,CoQoQCoQCo,0,1,1112,333
11g,35,99384,1,10,O,green,OQCoQoCoCQ,1,1,956,35
11g,36,101271,1,10,O,green,OoCQoCQCoQ,1,1,1049,60
11g,37,103267,0,10,O,green,oCQoQCQoCo,0,1,1063,443
11g,38,105673,0,10,O,green,oQCoQCoQCo,0,1,728,518
11g,39,107809,1,10,O,green,OQCoQCoQCo,1,1,674,76
11g,40,109465,1,10,O,green,OCQoCQoCQo,1,1,787,31
