sub,trial,time,numtargs,size,targchar,targcol,stim,resp,corr,rt1,rt2
16g,1,16550,1,10,O,green,OCoQCoQCoQ,0,1,3208,412
16g,2,21034,0,10,O,green,oQCoQCoQCQ,0,1,6206,525
16g,3,28676,1,10,O,green,OCoQoQCQCo,0,1,1494,566
16g,4,31604,0,10,O,green,CQoQoCQoCo,0,1,2801,519
16g,5,35791,1,10,O,green,OoCQCoQoQC,0,1,2165,4161
16g,6,42967,1,10,O,green,OoQCoQCQCo,1,1,521,529
16g,7,44868,0,10,O,green,CQoQCoQCoC,0,1,3202,378
16g,8,49299,1,10,O,green,OQoCoCQoCQ,1,1,1728,88
16g,9,52026,0,10,O,green,CQoCoQoQCo,0,1,3468,391
16g,10,56751,1,10,O,green,OoQCQoCQoC,0,1,2773,794
16g,11,61180,1,10,O,green,OCQoCQoQCo,1,1,787,220
16g,12,63081,1,10,O,green,OoQCoQCoQC,1,1,3642,255
16g,13,67844,0,10,O,green,QoCoQCoQCo,0,1,4499,513
16g,14,73707,1,10,O,green,OoCQoQCQoC,1,1,946,88
16g,15,75606,0,10,O,green,oQCQCoCQoC,0,1,2638,389
16g,16,79498,0,10,O,green,oQCQoCQoCo,0,1,1597,474
16g,17,82463,0,10,O,green,QCoCoQCQoC,0,1,2080,1807
16g,18,87230,0,10,O,green,QCoQCoQCoC,0,1,3770,487
16g,19,92335,1,10,O,green,OCQoCQoQCo,1,1,765,1852
16g,20,95829,0,10,O,green,QoCoQCQCoQ,0,1,3548,551
16g,21,100792,1,10,O,green,OQoCoQCoQC,0,1,3946,559
16g,22,106159,1,10,O,green,OCoQCoQCoQ,1,1,2276,2091
16g,23,111374,0,10,O,green,QoCoQCQCoQ,3,0,4832,494
16g,24,117549,1,10,O,green,OQoCoQCoQC,1,1,1070,192
16g,25,119675,1,10,O,green,OQCoQoCoQC,1,1,934,178
16g,26,121637,1,10,O,green,OQCoQoCoCQ,1,1,1552,104
16g,27,124155,0,10,O,green,CQoCQoQoCo,0,1,4101,746
16g,28,129852,0,10,O,green,oCQoQCQCoQ,0,1,2806,582
16g,29,134089,1,10,O,green,OQoCoQCoQC,1,1,3102,1180
16g,30,139239,1,10,O,green,OoQCoQCQCo,0,1,4881,794
16g,31,149611,0,10,O,green,CoQoCQCQoQ,0,1,863,1994
16g,32,153330,0,10,O,green,oQCQoCQoCo,0,1,1254,524
16g,33,155957,0,10,O,green,oQCQoCQCoQ,0,1,6510,751
16g,34,164099,0,10,O,green,QoCoQCoQCQ,0,1,2412,715
16g,35,168109,0,10,O,green,CoQCoQoCQC,0,1,1518,474
16g,36,170966,1,10,O,green,OCQoCQoQCo,1,1,1207,1094
16g,37,174117,1,10,O,green,OCoQCoQoCQ,0,1,9429,559
16g,38,184998,0,10,O,green,oQCQoCQoCQ,5,0,2089,670
16g,39,188638,0,10,O,green,QCoCQoQCoQ,0,1,3100,583
16g,40,193248,1,10,O,green,OQoCoCQoCQ,1,1,2356,848
16g,1,16860,1,10,O,green,OQCoQCoQoC,1,1,772,2156
16g,2,20638,1,10,O,green,OQoCQoCQoC,1,1,1626,210
16g,3,23338,0,10,O,green,oCQoCQoQCo,0,1,2034,513
16g,4,26768,0,10,O,green,CoQCoQCQoC,0,1,3174,602
16g,5,31395,1,10,O,green,OoQCoQCoCQ,1,1,1012,1469
16g,6,34725,1,10,O,green,OQCoCQoCQo,1,1,712,753
16g,7,37055,0,10,O,green,CQoQoCQoCQ,0,1,1983,487
16g,8,40422,1,10,O,green,OQoCoQCoQC,1,1,1258,77
16g,9,42610,0,10,O,green,QoCQCoQoCo,0,1,2318,787
16g,10,46583,0,10,O,green,oCQCQoQCoC,0,1,1272,1368
16g,11,50123,1,10,O,green,OQCoQCoCoQ,1,1,1078,106
16g,12,52173,1,10,O,green,OQoCoCQCoQ,1,1,2524,101
16g,13,55699,0,10,O,green,oCQoQCoQCQ,0,1,2937,635
16g,14,60138,1,10,O,green,OoQCoQCoCQ,1,1,833,83
16g,15,61907,0,10,O,green,CoQCoQCoQC,0,1,1852,584
16g,16,65212,0,10,O,green,QoCQoCQoCQ,0,1,1941,845
16g,17,68866,1,10,O,green,OQoCQCoCQo,1,1,1219,37
16g,18,70974,1,10,O,green,OQoCoCQoCQ,1,1,1268,84
16g,19,73208,1,10,O,green,OQCoQCoCQo,1,1,1660,656
16g,20,76427,0,10,O,green,CQoQCoCQoC,0,1,4834,1785
16g,21,83901,0,10,O,green,CoQoQCoQCQ,0,1,989,693
16g,22,86461,0,10,O,green,CoQCQoCoQC,0,1,2738,584
16g,23,90635,1,10,O,green,OQCoCoQoCQ,1,1,722,144
16g,24,92352,1,10,O,green,OoQCQoCQoC,1,1,1564,88
16g,25,94871,0,10,O,green,QCoCoQoQCo,0,1,2829,615
16g,26,99205,1,10,O,green,OQoCQoCoQC,1,1,911,92
16g,27,101085,0,10,O,green,CQoQCoCQoC,0,1,888,1144
16g,28,103968,0,10,O,green,CoQoCQoQCo,0,1,2161,3885
16g,29,110865,0,10,O,green,QCoQCoQCoC,0,1,1811,512
16g,30,114056,1,10,O,green,OCQoCQoCoQ,1,1,698,110
16g,31,117980,0,10,O,green,oCQCoQoCQo,0,1,999,557
16g,32,120403,0,10,O,green,oQCoQCQoCQ,0,1,1758,576
16g,33,123592,1,10,O,green,OQCoCQoQCo,1,1,859,83
16g,34,125387,0,10,O,green,QoCoQCQoCo,0,1,2593,600
16g,35,129467,1,10,O,green,OQCoCQoCQo,1,1,871,402
16g,36,131595,1,10,O,green,OQCoQCoQCo,1,1,4047,170
16g,37,136682,0,10,O,green,CoQoCQCoQo,0,1,1246,610
16g,38,139406,0,10,O,green,QCoQCoCoQC,0,1,2192,532
16g,39,142987,1,10,O,green,OoQCQoCQoC,1,1,1096,1041
16g,40,145992,1,10,O,green,OoQCQoCQoC,1,1,650,727
16g,1,17396,0,10,O,green,oQCQoCQoCo,0,1,1558,429
16g,2,20283,1,10,O,green,OQCoCQoCQo,1,1,675,648
16g,3,22484,0,10,O,green,CoQoCQCQoC,0,1,1608,465
16g,4,25432,1,10,O,green,OQoCQoCoCQ,1,1,1065,86
16g,5,27500,0,10,O,green,oQCoCQoCQo,0,1,605,472
16g,6,29468,1,10,O,green,OCQoQCoQCo,1,1,928,695
16g,7,31982,1,10,O,green,OQCoCQoQCo,1,1,2793,166
16g,8,35814,1,10,O,green,OQoCQoCQoC,1,1,736,190
16g,9,37611,1,10,O,green,OoCQoQCQoC,1,1,1885,424
16g,10,40798,0,10,O,green,CQoCoQoQCQ,0,1,3311,448
16g,11,45448,1,10,O,green,OQCoQoCQCo,1,1,818,171
16g,12,47348,1,10,O,green,OCoQCoQCQo,1,1,1016,81
16g,13,49316,0,10,O,green,QoCQoCoQCo,0,1,2598,383
16g,14,53177,0,10,O,green,QCoCQoQCoC,0,1,1194,442
16g,15,55687,0,10,O,green,QCoQoCQoCQ,0,1,865,495
16g,16,57921,0,10,O,green,QoCQCoCoQC,0,1,618,2669
16g,17,62112,1,10,O,green,OoCQCoQCoQ,1,1,1480,504
16g,18,64991,1,10,O,green,OCoQoQCQoC,1,1,3946,73
16g,19,69928,0,10,O,green,QoCQoCQoCo,0,1,5004,490
16g,20,76322,1,10,O,green,OCoQCoQCoQ,1,1,774,681
16g,21,78709,1,10,O,green,OCQoQCoQoC,1,1,735,2286
16g,22,82614,0,10,O,green,oQCoQCoQCo,0,1,2082,853
16g,23,86440,1,10,O,green,OQCoQCoCoQ,1,1,663,90
16g,24,88099,1,10,O,green,OoCQCoQoCQ,1,1,1426,59
16g,25,90464,1,10,O,green,OQCoCoQoQC,1,1,1011,167
16g,26,92534,0,10,O,green,oCQoCQCQoC,0,1,1410,484
16g,27,95328,1,10,O,green,OCoQCoQoCQ,1,1,1143,751
16g,28,98128,0,10,O,green,oQCoQCoQCo,0,1,3105,394
16g,29,102512,0,10,O,green,oQCQoCQoCQ,0,1,647,1083
16g,30,105141,0,10,O,green,QoCoQCoQCQ,0,1,1136,471
16g,31,109783,1,10,O,green,OoQCQoCoQC,1,1,850,175
16g,32,111739,0,10,O,green,QoCoQCoQCo,0,1,746,825
16g,33,114183,0,10,O,green,CoQoQCoQCo,0,1,1737,652
16g,34,117461,0,10,O,green,oCQoQCoQCQ,0,1,1666,480
16g,35,120494,1,10,O,green,OQoCoQCQCo,1,1,896,657
16g,36,122932,0,10,O,green,oCQCQoCoQC,0,1,559,403
16g,37,124801,0,10,O,green,CQoQoCoQCo,0,1,1295,802
16g,38,127796,1,10,O,green,OCoQoCQoCQ,1,1,1026,91
16g,39,129795,1,10,O,green,OoQCQoCoQC,1,1,901,85
16g,40,131665,0,10,O,green,oCQCoQCQoQ,0,1,2367,500
16g,1,46755,1,10,O,green,OQoCQoCoQC,1,1,924,64
16g,2,48616,0,10,O,green,QCoQCoQCoQ,0,1,2236,450
16g,3,52181,1,10,O,green,OCQoQCoCQo,1,1,766,1613
16g,4,55464,1,10,O,green,OoQCoCQoCQ,1,1,2813,541
16g,5,59751,0,10,O,green,oCQCQoCQoQ,0,1,843,2366
16g,6,63843,0,10,O,green,CoQCoQoCQC,0,1,847,420
16g,7,65991,1,10,O,green,OoQCQoCoQC,1,1,1051,555
16g,8,68483,0,10,O,green,CQoQCoCQoQ,0,1,708,754
16g,9,70827,0,10,O,green,oQCoQCoQCo,0,1,789,454
16g,10,72963,1,10,O,green,OoCQCoQoQC,1,1,2617,916
16g,11,77398,1,10,O,green,OQCoCQoCQo,1,1,959,59
16g,12,79333,1,10,O,green,OCQoQCoQCo,1,1,724,89
16g,13,81049,1,10,O,green,OCQoCQoQCo,1,1,1158,181
16g,14,83282,0,10,O,green,oCQCQoQoCo,0,1,1268,388
16g,15,85838,1,10,O,green,OoQCQoCQoC,1,1,961,55
16g,16,87723,0,10,O,green,CoQoCQCoQo,0,1,809,466
16g,17,89893,1,10,O,green,OQCoCoQCQo,1,1,703,64
16g,18,91556,0,10,O,green,oCQCoQoCQo,0,1,85,1318
16g,19,93844,0,10,O,green,QCoQCoQCoQ,0,1,1440,2257
16g,20,98483,0,10,O,green,QCoCoQCoQo,0,1,1041,532
16g,21,100934,0,10,O,green,QCoQCoQCoQ,0,1,661,431
16g,22,102914,0,10,O,green,CoQoCQCQoQ,0,1,643,480
16g,23,104942,1,10,O,green,OCoQCQoQCo,1,1,666,78
16g,24,106576,1,10,O,green,OCoQoQCoCQ,1,1,828,184
16g,25,108500,1,10,O,green,OQoCoCQCQo,1,1,2340,84
16g,26,111831,0,10,O,green,QCoCoQoCQo,0,1,1071,1083
16g,27,114879,1,10,O,green,OCQoQoCoQC,1,1,763,162
16g,28,116711,1,10,O,green,OCQoQoCoQC,1,1,823,77
16g,29,118537,1,10,O,green,OoCQoCQCoQ,1,1,711,96
16g,30,120214,1,10,O,green,OoCQCoQCoQ,1,1,1033,91
16g,31,124283,0,10,O,green,oQCoQCQoCQ,0,1,1587,419
16g,32,127211,0,10,O,green,QCoQoCoCQo,0,1,746,966
16g,33,129806,0,10,O,green,CQoCoQCoQC,0,1,4086,408
16g,34,135200,0,10,O,green,QCoCQoQCoC,0,1,2171,1528
16g,35,139772,0,10,O,green,QoCoCQoCQo,0,1,1094,401
16g,36,142150,1,10,O,green,OoCQCQoQCo,1,1,738,152
16g,37,143962,0,10,O,green,oQCQoCoQCQ,0,1,839,359
16g,38,146039,1,10,O,green,OCQoCoQoCQ,1,1,2156,98
16g,39,149183,1,10,O,green,OQCoQCoCQo,1,1,2353,90
16g,40,152520,0,10,O,green,QoCoQCQoCo,0,1,3080,384
