sub,trial,time,numtargs,size,targchar,targcol,stim,resp,corr,rt1,rt2
2m,1,18766,1,10,O,white,OoCQoCQoQC,1,1,3554,1536
2m,2,24738,0,10,O,green,oQCQoCoCQo,0,1,2421,659
2m,3,28726,1,10,O,green,OQoCoCQoQC,1,1,778,1100
2m,4,31514,0,10,O,green,oQCoQCQCoQ,0,1,1079,958
2m,5,34459,1,10,O,green,OoQCoCQoCQ,1,1,2151,442
2m,6,37964,0,10,O,white,CoQoQCoQCQ,0,1,2905,656
2m,7,42435,1,10,O,green,OoQCoQCoQC,1,1,1647,463
2m,8,45441,1,10,O,green,OoCQCoQCoQ,1,1,793,554
2m,9,47689,1,10,O,green,OQoCoCQCoQ,1,1,1516,112
2m,10,50223,0,10,O,white,oQCoQCoQCo,0,1,3865,717
2m,11,55710,0,10,O,green,QoCoQCQoCQ,0,1,4839,748
2m,12,62205,1,10,O,white,OQoCoQCQoC,1,1,1417,468
2m,13,64990,0,10,O,green,QCoQCoQCoC,0,1,1012,1134
2m,14,68045,1,10,O,white,OQoCQoCoQC,1,1,2325,822
2m,15,72082,0,10,O,green,QoCoCQCQoQ,0,1,941,1028
2m,16,74940,1,10,O,white,OCoQCoQCoQ,1,1,1235,435
2m,17,77515,0,10,O,white,CoQCQoCoQo,0,1,2653,1074
2m,18,82127,1,10,O,white,OoQCoQCQCo,1,1,1158,591
2m,19,84768,1,10,O,white,OCoQoCQCoQ,1,1,1810,435
2m,20,87909,0,10,O,green,QCoQCoQoCo,0,1,1277,560
2m,21,90626,0,10,O,green,oCQCoQoCQo,0,1,1053,1234
2m,22,93797,0,10,O,white,oQCQoCoQCQ,0,1,3364,641
2m,23,98713,1,10,O,white,OCoQCoQCoQ,1,1,1193,611
2m,24,101402,1,10,O,green,OCoQoCQoQC,1,1,781,523
2m,25,103608,0,10,O,white,oQCoQCoQCQ,0,1,2328,1073
2m,26,107957,0,10,O,green,oCQoCQoCQC,0,1,788,648
2m,27,110294,0,10,O,green,oCQCoQCoQo,0,1,1005,1297
2m,28,113480,0,10,O,white,CQoQCoQoCQ,0,1,3216,929
2m,29,118515,0,10,O,green,QCoQCoCoQC,0,1,790,1083
2m,30,121275,0,10,O,white,oQCQoCoQCo,0,1,3581,612
2m,31,128641,1,10,O,green,OQoCoQCoQC,1,1,755,443
2m,32,130759,1,10,O,white,OCQoQCoQCo,1,1,1991,421
2m,33,134047,1,10,O,white,OQCoCoQoCQ,1,1,2385,440
2m,34,137750,0,10,O,white,QoCoQCQCoQ,0,1,3137,661
2m,35,142457,0,10,O,white,QCoCQoCQoQ,0,1,3404,671
2m,36,147479,0,10,O,white,CQoQoCQoCQ,0,1,3545,662
2m,37,152562,1,10,O,green,OoQCQoCQCo,1,1,740,487
2m,38,154714,1,10,O,white,OoCQoCQoCQ,1,1,2046,460
2m,39,158130,1,10,O,green,OQCoCQoCoQ,1,1,971,460
2m,40,160504,1,10,O,green,OCoQCQoQCo,1,1,952,576
2m,1,12814,1,10,O,white,OQoCoQCQoC,1,1,2415,545
2m,2,16676,0,10,O,green,QCoCoQCQoC,0,1,1359,539
2m,3,19458,1,10,O,green,OCoQCQoQoC,1,1,799,507
2m,4,21678,1,10,O,white,OoQCoCQoCQ,0,1,2083,589
2m,5,25264,0,10,O,green,CoQCQoCoQC,0,1,1168,719
2m,6,28047,0,10,O,white,oCQoCQoQCQ,0,1,3521,611
2m,7,33071,0,10,O,white,oQCoCQCoQC,0,1,27089,3167
2m,8,64198,0,10,O,white,CQoQoCoCQC,0,1,4587,584
2m,9,70250,0,10,O,green,CoQCQoQCoC,0,1,867,1459
2m,10,73493,0,10,O,green,QCoCoQoQCo,0,1,961,547
2m,11,75912,0,10,O,white,QoCoQCQoCo,0,1,2723,1287
2m,12,80824,1,10,O,white,OCoQCoQoCQ,1,1,1289,734
2m,13,83739,0,10,O,white,QCoQCoCQoQ,0,1,4764,567
2m,14,89986,0,10,O,white,oCQoQCQoCo,0,1,3692,749
2m,15,95320,0,10,O,green,oCQoCQoCQo,0,1,788,690
2m,16,97696,1,10,O,green,OQoCoCQoCQ,1,1,856,647
2m,17,100074,1,10,O,green,OQCoQCoQCo,1,1,909,814
2m,18,102655,0,10,O,white,oQCoCQCoQC,0,1,4208,648
2m,19,108431,1,10,O,green,OQoCoQCoCQ,1,1,818,663
2m,20,110833,1,10,O,white,OoCQCQoCQo,1,1,1812,841
2m,21,114411,0,10,O,green,QoCQoCoCQC,0,1,2035,487
2m,22,117812,1,10,O,white,OQCoCQoQoC,1,1,1371,698
2m,23,120766,0,10,O,green,QoCoQCoQCo,0,1,1497,524
2m,24,123701,0,10,O,white,CQoCoQoQCo,0,1,2932,612
2m,25,128142,1,10,O,white,OCoQCQoQCo,1,1,1948,475
2m,26,131462,1,10,O,white,OCQoCQoQoC,1,1,3278,566
2m,27,136196,1,10,O,white,OQoCoCQoCQ,1,1,3038,415
2m,28,140602,1,10,O,white,OoQCQCoQCo,1,1,1656,537
2m,29,143685,1,10,O,green,OCoQoCQCoQ,1,1,1257,481
2m,30,146321,0,10,O,green,oCQCoQoCQC,0,1,1251,1869
2m,31,152558,0,10,O,white,CoQoCQCoQC,0,1,3305,658
2m,32,157468,1,10,O,green,OCQoCQoCQo,1,1,987,501
2m,33,159911,1,10,O,green,OoQCoQCoQC,1,1,800,451
2m,34,162055,1,10,O,green,OCoQCQoQoC,1,1,817,553
2m,35,164332,0,10,O,white,QCoCQoQCoC,0,1,4220,542
2m,36,170007,0,10,O,green,oCQoCQCoQC,0,1,1686,531
2m,37,173140,1,10,O,green,OoCQCoQoCQ,1,1,806,461
2m,38,175302,1,10,O,white,OQCoQoCoQC,1,1,3434,682
2m,39,180311,1,10,O,green,OoCQoCQoCQ,1,1,916,817
2m,40,182974,0,10,O,green,CoQCoQoCQo,0,1,2616,731
2m,1,50938,0,10,O,green,oQCQoCoQCQ,0,1,993,995
2m,2,53812,1,10,O,green,OoQCQoCoQC,1,1,992,510
2m,3,56210,0,10,O,green,CQoCQoCoQo,0,1,1834,746
2m,4,59690,0,10,O,white,QoCoQCoQCQ,0,1,3086,534
2m,5,64200,1,10,O,green,OCQoQCoQoC,1,1,1049,635
2m,6,66772,1,10,O,white,OQCoCQoCQo,1,1,2616,631
2m,7,70920,1,10,O,green,OCoQoQCoQC,1,1,1742,514
2m,8,74065,1,10,O,green,OCQoCoQoCQ,1,1,665,499
2m,9,76135,0,10,O,green,CQoQCoCoQC,0,1,1142,770
2m,10,78964,0,10,O,white,oQCQoCQoCo,0,1,4073,675
2m,11,84576,0,10,O,white,CoQCoQCoQC,0,1,3349,982
2m,12,89815,0,10,O,green,oCQoQCQoCQ,0,1,985,796
2m,13,92488,0,10,O,green,CoQCoQCoQo,0,1,898,793
2m,14,95072,1,10,O,white,OCoQCQoQCo,1,1,2085,1263
2m,15,99338,1,10,O,green,OCQoCQoQCo,1,1,747,707
2m,16,101676,0,10,O,white,QCoQCoQoCQ,0,1,3612,1194
2m,17,107394,1,10,O,green,OQoCQoCoCQ,1,1,1884,742
2m,18,110905,1,10,O,white,OCoQoQCoCQ,1,1,2092,459
2m,19,114351,1,10,O,green,OCoQCoQCoQ,1,1,1818,958
2m,20,118038,1,10,O,green,OoCQoCQoCQ,1,1,771,689
2m,21,120441,0,10,O,white,CQoCQoQCoQ,0,1,3884,734
2m,22,125961,1,10,O,white,OQCoQoCoQC,1,1,2316,435
2m,23,129595,1,10,O,white,OCoQoCQoQC,1,1,1211,466
2m,24,132180,1,10,O,white,OoCQoQCQCo,1,1,1578,510
2m,25,135143,0,10,O,green,QCoCoQoQCo,0,1,916,619
2m,26,137633,0,10,O,green,QoCQoCQoCo,0,1,895,1325
2m,27,140762,1,10,O,green,OoQCQCoCoQ,1,1,809,605
2m,28,143062,0,10,O,green,oCQCoQCQoQ,0,1,1085,1279
2m,29,146310,0,10,O,white,oCQoCQoQCQ,0,1,6131,599
2m,30,153924,0,10,O,white,CoQCoQoCQo,0,1,4409,634
2m,31,162293,1,10,O,white,OoCQoCQoCQ,0,1,218,1748
2m,32,165171,0,10,O,green,CoQCoQoQCo,0,1,832,732
2m,33,167647,0,10,O,white,oCQoQCQoCo,0,1,4263,514
2m,34,173309,0,10,O,white,CoQCoQoCQC,0,1,3721,584
2m,35,178505,0,10,O,green,oCQCoQCoQo,0,1,907,807
2m,36,181104,1,10,O,white,OQCoCoQCoQ,1,1,1353,456
2m,37,183829,1,10,O,green,OCoQCoQoCQ,1,1,1420,649
2m,38,186799,1,10,O,white,OoQCQoCQCo,1,1,1960,631
2m,39,190289,0,10,O,white,oCQoCQoCQo,0,1,2863,683
2m,40,194754,1,10,O,white,OCQoQoCQoC,1,1,1275,287
