sub,trial,time,numtargs,size,targchar,targcol,stim,resp,corr,rt1,rt2
29m,1,12675,1,10,O,white,OoQCQoCoQC,0,1,3339,377
29m,2,17295,0,10,O,green,QoCQoCQCoC,0,1,1213,461
29m,3,19860,1,10,O,white,OQoCQCoCQo,1,1,1008,33
29m,4,21795,1,10,O,green,OoCQCoQCoQ,1,1,2926,47
29m,5,25650,0,10,O,green,oQCQoCQoCQ,0,1,1442,401
29m,6,28438,0,10,O,white,CQoCQoQCoC,0,1,2773,613
29m,7,32742,0,10,O,green,oQCQoCQoCQ,0,1,1051,394
29m,8,35076,1,10,O,white,OCoQoQCoCQ,1,1,1484,82
29m,9,37530,0,10,O,white,CQoCoQCoQC,0,1,3100,532
29m,10,42060,0,10,O,green,oQCoQCoQCo,0,1,1049,701
29m,11,44750,0,10,O,green,oCQoCQCoQC,0,1,1082,417
29m,12,47167,0,10,O,white,CQoCQoQCoC,0,1,2416,447
29m,13,50923,1,10,O,green,OQoCQoCQoC,1,1,2209,34
29m,14,54071,1,10,O,green,OoCQoCQoCQ,1,1,1061,1046
29m,15,57068,0,10,O,white,CoQCoQoCQC,0,1,1914,382
29m,16,60245,0,10,O,white,CoQCoQCoQo,0,1,2057,536
29m,17,63762,1,10,O,white,OoCQCoQoCQ,1,1,1271,736
29m,18,66688,0,10,O,white,CQoCQoCQoC,0,1,6823,465
29m,19,74880,1,10,O,green,OCQoQoCQCo,1,1,2695,57
29m,20,78522,0,10,O,white,oCQoQCQoCQ,0,1,4779,533
29m,21,84724,1,10,O,white,OoQCoQCQCo,1,1,1466,63
29m,22,87143,1,10,O,white,OCQoQCoQoC,1,1,2484,34
29m,23,90549,1,10,O,white,OoQCQoCoQC,1,1,1386,976
29m,24,93844,0,10,O,green,CoQoQCoQCQ,0,1,1070,415
29m,25,96250,1,10,O,white,OQoCQoCQoC,1,1,1597,38
29m,26,98770,1,10,O,green,OoQCoQCoQC,1,1,1688,70
29m,27,101416,0,10,O,white,CoQCoQoQCQ,0,1,4769,536
29m,28,107607,1,10,O,white,OoQCoQCQoC,1,1,2778,61
29m,29,111334,1,10,O,green,OoCQCoQCoQ,1,1,1293,3011
29m,30,116593,1,10,O,green,OCQoCQoQoC,1,1,1147,43
29m,31,121016,0,10,O,green,CQoQoCoQCo,0,1,1020,399
29m,32,123366,0,10,O,green,QoCQoCoQCo,0,1,1016,427
29m,33,125712,0,10,O,white,oQCQCoQCoC,0,1,3082,473
29m,34,130171,1,10,O,white,OQCoQCoCoQ,1,1,2825,22
29m,35,133939,1,10,O,green,OCoQoCQoQC,1,1,1507,1061
29m,36,137407,0,10,O,green,oQCQoCoCQo,0,1,3314,632
29m,37,142269,0,10,O,white,oCQoCQoCQo,0,1,3144,523
29m,38,146826,0,10,O,green,oQCoQCoCQC,0,1,3314,433
29m,39,151482,1,10,O,green,OQCoCQoCQo,0,1,3293,485
29m,40,156181,1,10,O,green,OQCoQoCQoC,1,1,1098,996
29m,1,18744,0,10,O,white,CQoCoQCoQC,0,1,3892,2026
29m,2,25536,0,10,O,green,oCQoQCQoCo,0,1,3403,551
29m,3,30362,1,10,O,white,OoCQoCQoCQ,1,1,1246,46
29m,4,32555,0,10,O,green,CQoCQoCQoC,0,1,1434,602
29m,5,35499,1,10,O,white,OQCoCQoCQo,1,1,1851,71
29m,6,38300,0,10,O,white,QCoQCoQoCQ,0,1,7663,428
29m,7,47242,1,10,O,white,OoCQCoQCoQ,1,1,3398,69
29m,8,51572,0,10,O,green,CoQoQCoQCo,0,1,4074,939
29m,9,57453,1,10,O,green,OCQoQoCQoC,1,1,2121,98
29m,10,60554,0,10,O,white,CoQoQCoQCo,0,1,6403,534
29m,11,68404,1,10,O,white,OCQoQoCQCo,1,1,1962,87
29m,12,71320,0,10,O,white,oCQoCQCoQo,0,1,3661,495
29m,13,76363,1,10,O,green,OoQCQoCQoC,1,1,984,71
29m,14,78293,0,10,O,white,oCQoQCoQCo,0,1,4067,676
29m,15,83933,1,10,O,green,OQoCoQCoCQ,1,1,1460,53
29m,16,86343,0,10,O,green,QCoQCoCQoC,0,1,1611,394
29m,17,89272,1,10,O,green,OoQCoCQoQC,1,1,1166,689
29m,18,92026,0,10,O,green,oCQCoQCQoQ,0,1,1568,428
29m,19,94948,0,10,O,green,oCQCQoQCoQ,0,1,2881,405
29m,20,99151,0,10,O,green,QoCQoCoQCQ,0,1,1157,495
29m,21,101694,1,10,O,white,OCoQoCQoCQ,1,1,2386,166
29m,22,105096,0,10,O,white,CoQoCQCoQo,0,1,4371,675
29m,23,111018,0,10,O,white,CQoCQoCoQC,0,1,3373,663
29m,24,115929,1,10,O,white,OQoCoQCQCo,1,1,3508,708
29m,25,121020,1,10,O,green,OCoQCoQCQo,1,1,1782,3678
29m,26,127366,1,10,O,white,OoQCoCQCQo,1,1,1288,53
29m,27,129577,1,10,O,green,OQCoQoCoQC,1,1,1248,58
29m,28,131761,0,10,O,green,CQoCoQCoQC,0,1,1239,434
29m,29,134316,1,10,O,white,OCQoQCoCQo,1,1,1191,75
29m,30,136461,1,10,O,green,OCQoQCoCQo,1,1,1187,70
29m,31,140943,1,10,O,green,OQoCQCoCQo,1,1,1215,51
29m,32,143147,0,10,O,green,oCQCoQoCQC,0,1,3831,409
29m,33,148266,1,10,O,white,OCQoQCoCQo,1,1,2398,65
29m,34,151611,1,10,O,green,OoQCQCoQCo,1,1,2749,886
29m,35,156113,1,10,O,green,OCQoQoCoQC,1,1,1919,61
29m,36,158964,0,10,O,white,QCoQoCoCQC,0,1,4657,574
29m,37,165063,1,10,O,white,OCoQoQCoQC,1,1,3977,73
29m,38,170016,0,10,O,white,QCoCQoQCoC,0,1,3262,489
29m,39,174653,0,10,O,white,oCQCoQoCQo,0,1,2113,567
29m,40,178231,0,10,O,green,oQCQCoCQoQ,0,1,3280,487
29m,1,17219,0,10,O,green,oCQoCQCQoC,0,1,2742,423
29m,2,21285,0,10,O,white,oCQCoQCoQC,0,1,2999,681
29m,3,25873,1,10,O,green,OoCQCoQoCQ,1,1,2994,72
29m,4,29827,0,10,O,white,oCQCoQoCQo,0,1,2928,851
29m,5,34519,1,10,O,white,OoQCQoCoCQ,1,1,2215,46
29m,6,37715,0,10,O,white,CQoQCoCoQC,0,1,4629,951
29m,7,44203,0,10,O,white,oCQCoQCoQC,0,1,4052,637
29m,8,49837,0,10,O,green,QCoQoCoQCo,0,1,937,417
29m,9,52086,1,10,O,green,OoQCQCoQCo,1,1,1465,820
29m,10,55262,0,10,O,white,CoQoCQCQoQ,0,1,2783,794
29m,11,59740,1,10,O,green,OCQoQoCoQC,1,1,1078,37
29m,12,61774,0,10,O,green,QCoQoCoQCo,0,1,1822,409
29m,13,64900,1,10,O,green,OCoQoCQoQC,1,1,1194,890
29m,14,67878,1,10,O,white,OoCQoCQCoQ,1,1,1002,68
29m,15,69859,1,10,O,green,OCQoQCoCoQ,0,1,3377,587
29m,16,74708,0,10,O,white,CoQoCQoCQo,0,1,3299,478
29m,17,79387,1,10,O,green,OQoCQCoCoQ,1,1,1554,54
29m,18,81883,0,10,O,green,CoQCQoCQoC,0,1,900,426
29m,19,84097,0,10,O,white,oCQCoQCoQC,0,1,2460,512
29m,20,87973,1,10,O,white,OCoQCoQoQC,1,1,1974,2399
29m,21,93248,1,10,O,green,OQoCQCoQCo,1,1,1083,540
29m,22,95774,0,10,O,white,QoCoQCQoCo,0,1,2146,622
29m,23,99430,0,10,O,white,CQoQCoCQoQ,0,1,3087,556
29m,24,103967,1,10,O,white,OQoCQoCQoC,1,1,2616,49
29m,25,107547,1,10,O,white,OQoCoQCQoC,1,1,2223,55
29m,26,110706,1,10,O,green,OoCQCQoCQo,1,1,1631,46
29m,27,113288,0,10,O,green,CoQCQoCQoQ,0,1,607,616
29m,28,115397,0,10,O,green,oQCQCoQoCQ,0,1,1419,417
29m,29,118122,1,10,O,white,OQCoQoCoQC,1,1,2309,40
29m,30,121360,0,10,O,green,CQoCoQoQCo,0,1,1943,406
29m,31,126901,0,10,O,green,CoQCQoCoQo,0,1,817,394
29m,32,129040,1,10,O,green,OQCoQoCoQC,1,1,1186,28
29m,33,131139,1,10,O,white,OQCoCQoCQo,1,1,3640,1412
29m,34,137079,1,10,O,green,OoQCQoCoCQ,1,1,1807,1620
29m,35,141427,0,10,O,green,CoQCoQoQCo,0,1,1176,440
29m,36,143921,1,10,O,white,OoCQoQCQCo,1,1,1905,60
29m,37,146789,0,10,O,green,QCoCoQoCQo,0,1,24,3086
29m,38,150790,0,10,O,white,QCoCQoQCoC,0,1,3505,581
29m,39,155769,1,10,O,white,OQCoQCoQCo,1,1,1954,861
29m,40,159492,1,10,O,white,OoCQoCQCoQ,1,1,4217,655
29m,1,12715,1,10,O,white,OQCoCQoQCo,1,1,2872,73
29m,2,16538,1,10,O,white,OCQoCQoQCo,1,1,3932,47
29m,3,21414,1,10,O,white,OoQCoQCQoC,1,1,3729,39
29m,4,26074,0,10,O,green,oQCoCQoCQC,0,1,1140,388
29m,5,28516,1,10,O,white,OCQoQoCQCo,1,1,3644,122
29m,6,33186,1,10,O,white,OoQCoQCoQC,1,1,2653,57
29m,7,36802,0,10,O,green,CoQCQoCQoC,0,1,2858,400
29m,8,40967,0,10,O,white,oCQCoQoQCo,0,1,3630,659
29m,9,46161,0,10,O,white,QoCQoCoQCQ,0,1,4828,452
29m,10,52338,0,10,O,green,QoCoCQCoQC,0,1,6979,421
29m,11,60626,0,10,O,white,CoQCoQCQoQ,0,1,5216,370
29m,12,67146,1,10,O,green,OCoQoCQoCQ,1,1,4035,2135
29m,13,74217,1,10,O,white,OoCQoQCQCo,1,1,1595,1403
29m,14,78126,1,10,O,green,OoCQCQoCQo,1,1,785,119
29m,15,79941,0,10,O,green,CoQCQoQoCo,0,1,2469,533
29m,16,83823,0,10,O,green,CQoQCoCoQC,0,1,666,458
29m,17,85831,0,10,O,white,QCoQoCQoCQ,0,1,2142,499
29m,18,89414,1,10,O,green,OCQoQCoCQo,1,1,793,49
29m,19,91149,0,10,O,white,CQoCQoQCoC,0,1,1852,666
29m,20,94589,1,10,O,white,OoCQCoQoCQ,1,1,1711,45
29m,21,97259,1,10,O,green,OQCoQCoQoC,1,1,667,50
29m,22,98860,1,10,O,white,OQoCoCQCoQ,1,1,1529,45
29m,23,101334,1,10,O,green,OQCoQCoCQo,1,1,683,759
29m,24,103690,0,10,O,white,CQoQCoCQoC,0,1,2100,509
29m,25,107235,0,10,O,green,CQoCQoCQoQ,0,1,687,495
29m,26,109334,0,10,O,white,oCQoCQoCQC,0,1,3708,504
29m,27,114465,0,10,O,green,QoCQCoQCoC,0,1,850,428
29m,28,116699,0,10,O,white,oCQCoQoCQC,0,1,2036,588
29m,29,120231,1,10,O,white,OQoCQoCQoC,1,1,1040,66
29m,30,122246,1,10,O,green,OQoCQoCQCo,0,1,2941,483
29m,31,128980,0,10,O,green,oCQCoQCoQC,0,1,662,601
29m,32,131176,1,10,O,green,OCQoQoCoCQ,1,1,1197,60
29m,33,133329,0,10,O,white,QCoCQoQoCQ,0,1,3689,738
29m,34,138675,0,10,O,green,CoQCoQoCQo,0,1,782,486
29m,35,140844,1,10,O,green,OQCoCoQoCQ,1,1,704,62
29m,36,142517,1,10,O,green,OQoCQoCoQC,1,1,825,70
29m,37,144305,0,10,O,green,QoCQoCQoCQ,0,1,1188,431
29m,38,146816,1,10,O,green,OoQCoQCoCQ,1,1,866,43
29m,39,148652,0,10,O,white,QCoQoCoQCo,0,1,746,1126
29m,40,151403,1,10,O,white,OoQCoQCoCQ,1,1,1324,71
