sub,trial,time,numtargs,size,targchar,targcol,stim,resp,corr,rt1,rt2
2212,1,15442,0,10,O,green,oCQoCQCoQC,0,1,2395,797
2212,2,19504,0,10,O,green,CQoCQoQCoC,0,1,1775,641
2212,3,22784,0,10,O,green,oQCQCoQCoC,0,1,1539,588
2212,4,25766,1,10,O,green,OQoCoQCoQC,1,1,3049,501
2212,5,30203,1,10,O,green,OCQoQoCQoC,1,1,1324,754
2212,6,33173,1,10,O,green,OoCQCQoQCo,1,1,1419,3154
2212,7,38617,1,10,O,green,OCoQCQoCQo,1,1,2346,462
2212,8,42292,0,10,O,green,CoQCoQCQoQ,0,1,2031,962
2212,9,46148,1,10,O,green,OQoCoCQoCQ,1,1,2954,533
2212,10,50494,1,10,O,green,OoQCQCoCQo,1,1,2979,480
2212,11,54838,0,10,O,green,oCQCQoQCoC,0,1,3445,579
2212,12,59736,0,10,O,green,oQCQoCoQCo,0,1,2289,550
2212,13,63429,1,10,O,green,OoCQCoQCQo,1,1,1492,515
2212,14,66304,0,10,O,green,CoQoQCQoCQ,0,1,1577,532
2212,15,69267,1,10,O,green,OoCQoQCoQC,1,1,2349,993
2212,16,73494,1,10,O,green,OCQoCQoCQo,1,1,1564,372
2212,17,76340,0,10,O,green,oCQCoQoCQo,0,1,1644,656
2212,18,79516,1,10,O,green,OCoQCoQoCQ,1,1,1367,417
2212,19,82188,0,10,O,green,CQoQCoCQoC,0,1,1236,629
2212,20,84950,0,10,O,green,CQoQoCQCoQ,0,1,1870,575
2212,21,88299,0,10,O,green,CQoQCoCQoQ,0,1,1399,544
2212,22,91138,1,10,O,green,OoQCoQCQoC,1,1,2584,454
2212,23,95059,0,10,O,green,QoCoQCQoCo,0,1,2352,572
2212,24,98874,0,10,O,green,CQoCQoCoQo,0,1,1519,601
2212,25,101891,1,10,O,green,OQCoCoQCQo,1,1,951,1761
2212,26,105485,0,10,O,green,CQoCQoQCoQ,0,1,1134,605
2212,27,108105,1,10,O,green,OQCoQCoQCo,1,1,1313,451
2212,28,110767,1,10,O,green,OCQoQoCQoC,1,1,626,540
2212,29,112824,0,10,O,green,oCQCoQCoQC,0,1,2303,413
2212,30,116435,1,10,O,green,OQoCQCoQoC,1,1,1239,431
2212,31,122021,1,10,O,green,OQoCQCoCQo,1,1,799,484
2212,32,124231,0,10,O,green,CQoCoQCoQo,0,1,2542,446
2212,33,128127,0,10,O,green,CoQCoQCQoQ,0,1,1847,499
2212,34,131419,1,10,O,green,OoCQoQCoQC,1,1,1446,486
2212,35,134259,0,10,O,green,oCQoCQoCQo,0,1,799,470
2212,36,136401,1,10,O,green,OCQoCQoCoQ,1,1,832,451
2212,37,138566,1,10,O,green,OCoQoCQoCQ,1,1,894,547
2212,38,140931,0,10,O,green,CQoQCoCQoQ,0,1,1587,648
2212,39,144088,0,10,O,green,oQCQoCoQCQ,0,1,1062,701
2212,40,146741,1,10,O,green,OQCoQCoQoC,1,1,1778,515
2212,1,19824,0,10,O,green,QoCoQCQoCQ,0,1,2154,571
2212,2,23431,0,10,O,green,oQCoQCQCoC,0,1,2151,474
2212,3,26959,1,10,O,green,OoCQoCQCQo,1,1,3192,1684
2212,4,32728,1,10,O,green,OoQCQCoQoC,1,1,2106,577
2212,5,36292,1,10,O,green,OoQCoQCoCQ,1,1,2439,429
2212,6,40052,1,10,O,green,OoCQoQCQoC,1,1,2228,434
2212,7,43626,0,10,O,green,CoQCoQCQoC,0,1,2763,619
2212,8,47914,0,10,O,green,CoQCoQCoQC,0,1,3413,665
2212,9,52910,0,10,O,green,QoCoCQoQCo,0,1,2085,566
2212,10,56452,1,10,O,green,OCoQCoQCoQ,1,1,1724,466
2212,11,59537,0,10,O,green,CoQoQCQoCQ,0,1,2149,600
2212,12,63183,0,10,O,green,oQCQCoQoCo,0,1,2497,625
2212,13,67194,0,10,O,green,QCoCQoCQoC,0,1,10466,632
2212,14,79161,1,10,O,green,OQoCoQCQoC,1,1,2754,483
2212,15,83307,1,10,O,green,OQoCQCoCQo,1,1,1822,490
2212,16,86511,0,10,O,green,oQCQoCQoCQ,0,1,3180,669
2212,17,91282,0,10,O,green,CoQoQCQoCQ,0,1,4186,543
2212,18,96897,1,10,O,green,OQoCoCQoCQ,1,1,1961,426
2212,19,100175,0,10,O,green,oQCoQCQCoC,0,1,1827,528
2212,20,103438,1,10,O,green,OQCoCoQCQo,1,1,3300,442
2212,21,108091,1,10,O,green,OQCoQCoCQo,1,1,2162,469
2212,22,111636,0,10,O,green,CQoQCoQCoQ,0,1,2943,558
2212,23,116022,1,10,O,green,OCQoCQoCQo,1,1,1734,442
2212,24,119104,1,10,O,green,OCoQCQoCQo,1,1,3095,493
2212,25,123586,1,10,O,green,OQoCoCQCoQ,1,1,1657,435
2212,26,126589,0,10,O,green,CQoCoQoCQC,0,1,3316,654
2212,27,131476,1,10,O,green,OCoQCoQoCQ,1,1,2432,450
2212,28,135262,0,10,O,green,QoCQoCQoCQ,0,1,3651,667
2212,29,140498,0,10,O,green,oQCQCoCQoC,0,1,5453,618
2212,30,147458,1,10,O,green,OQCoQoCoQC,1,1,3630,449
2212,31,155644,0,10,O,green,CQoQCoQoCo,0,1,199,841
2212,32,157596,0,10,O,green,QoCoCQoCQo,0,1,2407,549
2212,33,161456,1,10,O,green,OCQoQoCQoC,1,1,2196,512
2212,34,165083,0,10,O,green,CoQCQoQCoC,0,1,2005,498
2212,35,168507,0,10,O,green,CoQCoQCoQC,0,1,2562,549
2212,36,172523,1,10,O,green,OoQCQCoQCo,1,1,1370,1116
2212,37,175942,1,10,O,green,OCQoQCoCQo,1,1,1548,1603
2212,38,179989,0,10,O,green,CoQCQoQCoQ,0,1,2580,647
2212,39,184110,1,10,O,green,OQoCQoCQoC,1,1,3174,573
2212,40,188779,1,10,O,green,OoCQCoQCQo,1,1,1882,570
2212,1,34043,0,10,O,green,CoQCoQoQCQ,0,1,2636,674
2212,2,38273,1,10,O,green,OoQCoQCQCo,1,1,1650,537
2212,3,41358,1,10,O,green,OCoQoQCQCo,1,1,3227,495
2212,4,45982,1,10,O,green,OoCQoCQoQC,1,1,1762,683
2212,5,49341,1,10,O,green,OQCoQCoQoC,1,1,1731,546
2212,6,52531,1,10,O,green,OCoQoCQCQo,1,1,1454,608
2212,7,55492,0,10,O,green,QoCoQCoQCo,0,1,3484,673
2212,8,60546,0,10,O,green,CoQCoQoQCo,0,1,5539,537
2212,9,67524,0,10,O,green,oCQCoQCQoC,0,1,3001,569
2212,10,71991,1,10,O,green,OQCoQoCQCo,1,1,2380,521
2212,11,75791,1,10,O,green,OQoCQCoQCo,1,1,2782,571
2212,12,80047,1,10,O,green,OCQoQoCQoC,1,1,2507,1058
2212,13,84506,1,10,O,green,OCoQCoQoCQ,1,1,1339,565
2212,14,87333,0,10,O,green,CoQoCQoQCo,0,1,3698,616
2212,15,92560,1,10,O,green,OCoQoQCoCQ,1,1,2104,606
2212,16,96157,1,10,O,green,OCoQoCQCQo,1,1,2891,528
2212,17,100470,0,10,O,green,QoCoQCQCoC,0,1,3779,622
2212,18,105777,0,10,O,green,QoCoCQCoQo,0,1,5314,614
2212,19,112590,1,10,O,green,OCoQCoQoQC,1,1,2117,507
2212,20,116125,0,10,O,green,CoQoCQCoQo,0,1,2655,709
2212,21,120399,0,10,O,green,QCoQCoCoQo,0,1,3057,567
2212,22,124912,0,10,O,green,CoQCQoQoCQ,0,1,2245,1566
2212,23,129633,1,10,O,green,OQoCQoCQCo,1,1,1197,460
2212,24,132177,0,10,O,green,QCoCQoCQoQ,0,1,2481,574
2212,25,136139,0,10,O,green,oQCoQCQoCo,0,1,2202,498
2212,26,139743,1,10,O,green,OCoQoCQCQo,1,1,2666,487
2212,27,143782,1,10,O,green,OoCQoCQoQC,1,1,3457,500
2212,28,148645,1,10,O,green,OCoQoQCoQC,1,1,1713,655
2212,29,151919,1,10,O,green,OoCQCoQCoQ,1,1,3187,528
2212,30,156587,0,10,O,green,CoQCoQCQoC,0,1,3230,568
2212,31,164633,0,10,O,green,CoQCoQCQoQ,0,1,812,494
2212,32,166884,0,10,O,green,oQCQoCoQCo,0,1,3656,574
2212,33,172045,0,10,O,green,QoCQoCoQCo,0,1,3644,537
2212,34,177144,0,10,O,green,QCoQCoCQoC,0,1,2948,552
2212,35,181534,1,10,O,green,OCoQCoQoCQ,1,1,1994,594
2212,36,185021,0,10,O,green,oQCQCoQoCQ,0,1,3670,659
2212,37,190228,0,10,O,green,CoQCQoQoCo,0,1,3266,527
2212,38,194906,0,10,O,green,QoCQoCQoCQ,0,1,7967,564
2212,39,204323,1,10,O,green,OQoCoCQCoQ,1,1,7078,498
2212,40,212840,1,10,O,green,OCQoQCoCQo,1,1,2713,472
2212,1,7654,1,10,O,green,OQoCoQCoCQ,1,1,3911,435
2212,2,12903,0,10,O,green,CoQoCQoCQC,0,1,5053,499
2212,3,19360,0,10,O,green,oQCQoCQCoQ,0,1,7402,678
2212,4,28315,0,10,O,green,oCQCoQCoQC,0,1,5706,542
2212,5,35443,0,10,O,green,CoQCoQCoQo,0,1,3771,517
2212,6,40645,1,10,O,green,OCQoCQoQCo,1,1,936,454
2212,7,42924,0,10,O,green,CQoQCoCQoC,0,1,1663,437
2212,8,45932,0,10,O,green,CoQoCQoCQC,0,1,3691,425
2212,9,50934,0,10,O,green,oCQoQCQoCo,0,1,2970,796
2212,10,55589,1,10,O,green,OoQCoQCQoC,1,1,1748,873
2212,11,59110,0,10,O,green,CQoQCoCQoC,0,1,1621,701
2212,12,62329,1,10,O,green,OoCQCoQoCQ,1,1,1329,415
2212,13,64970,1,10,O,green,OCQoQCoCoQ,1,1,1982,370
2212,14,68227,0,10,O,green,QCoCoQoCQo,0,1,3410,523
2212,15,73044,0,10,O,green,CQoCoQCoQo,0,1,1961,481
2212,16,76412,0,10,O,green,QCoQCoCoQo,0,1,1932,495
2212,17,79769,1,10,O,green,OoCQCoQoCQ,1,1,2639,374
2212,18,83690,1,10,O,green,OCQoQCoCQo,1,1,3032,401
2212,19,88015,0,10,O,green,oQCQCoCQoQ,0,1,2459,432
2212,20,91801,1,10,O,green,OQoCQCoCQo,1,1,2967,442
2212,21,96108,0,10,O,green,CQoCoQoCQC,0,1,1170,438
2212,22,98631,0,10,O,green,CQoCoQCoQo,0,1,2341,485
2212,23,102381,1,10,O,green,OQCoCoQCoQ,1,1,1871,532
2212,24,105706,1,10,O,green,OoQCQoCQoC,1,1,2747,428
2212,25,109767,1,10,O,green,OoCQCQoQoC,1,1,2857,395
2212,26,113914,0,10,O,green,QCoQCoCQoC,0,1,2810,479
2212,27,118111,1,10,O,green,OCQoQCoQCo,1,1,2813,438
2212,28,122271,0,10,O,green,CoQCoQoQCQ,0,1,1219,452
2212,29,124854,1,10,O,green,OoCQoCQCoQ,1,1,3260,449
2212,30,129474,1,10,O,green,OoCQCQoCQo,1,1,1101,360
2212,31,134060,1,10,O,green,OoQCoCQCoQ,1,1,1592,412
2212,32,137003,1,10,O,green,OCoQoQCQCo,1,1,1223,361
2212,33,139496,1,10,O,green,OoCQoQCoCQ,1,1,541,475
2212,34,141425,1,10,O,green,OoCQCQoCoQ,1,1,1817,864
2212,35,145012,0,10,O,green,oQCQCoCQoC,0,1,1819,1112
2212,36,148865,0,10,O,green,QoCQoCoQCo,0,1,2085,473
2212,37,152333,0,10,O,green,QCoCoQCoQo,0,1,2174,592
2212,38,156020,0,10,O,green,CoQoCQoCQo,0,1,3431,500
2212,39,160850,1,10,O,green,OQCoCoQoCQ,1,1,2557,576
2212,40,164878,1,10,O,green,OoCQCoQCoQ,1,1,2148,713
