sub,trial,time,numtargs,size,targchar,targcol,stim,resp,corr,rt1,rt2
23m,1,16378,1,10,O,white,OCQoQCoQCo,1,1,2376,816
23m,2,20485,1,10,O,green,OoQCQoCoQC,1,1,2263,708
23m,3,24365,0,10,O,green,QoCoCQoCQo,0,1,1279,812
23m,4,27359,0,10,O,green,oQCQoCQCoQ,0,1,2443,849
23m,5,31600,1,10,O,green,OCQoQCoQCo,1,1,1958,713
23m,6,35158,0,10,O,white,CQoQCoQCoC,0,1,3336,890
23m,7,40292,1,10,O,green,OQCoCoQCQo,1,1,1901,628
23m,8,43739,1,10,O,white,OQCoCoQoQC,1,1,3676,973
23m,9,49334,0,10,O,white,oQCQoCoQCo,0,1,3777,971
23m,10,54980,1,10,O,white,OoQCQoCQoC,1,1,2383,632
23m,11,58884,0,10,O,white,QCoCoQCQoQ,0,1,2280,1060
23m,12,63111,0,10,O,white,CoQCoQCQoC,0,1,4085,917
23m,13,69018,1,10,O,green,OCoQCoQCoQ,1,1,1067,687
23m,14,71669,1,10,O,white,OQCoCQoCQo,1,1,3431,668
23m,15,76676,0,10,O,white,QoCoQCQCoQ,0,1,7615,865
23m,16,86050,1,10,O,green,OoQCoQCoQC,1,1,1648,559
23m,17,89148,1,10,O,green,OQCoCQoQCo,1,1,910,527
23m,18,91494,1,10,O,white,OCQoQoCoQC,1,1,1677,527
23m,19,94591,0,10,O,white,CQoCoQoCQo,0,1,2755,864
23m,20,99106,0,10,O,green,oQCoCQoCQo,0,1,1574,979
23m,21,102590,0,10,O,white,QoCQoCoCQo,0,1,2615,1000
23m,22,107129,0,10,O,green,CoQCoQCQoC,0,1,2421,993
23m,23,111447,0,10,O,green,QCoQCoCQoQ,0,1,1931,674
23m,24,114946,1,10,O,white,OoQCoQCoCQ,1,1,1190,526
23m,25,117566,0,10,O,green,QoCQoCoQCQ,0,1,1024,1458
23m,26,120947,0,10,O,white,QCoQoCQoCo,0,1,2421,690
23m,27,124955,1,10,O,white,OoCQCoQoCQ,1,1,1891,704
23m,28,128454,1,10,O,white,OoCQoCQCoQ,1,1,1398,1217
23m,29,131967,1,10,O,white,OCoQCoQoCQ,1,1,1500,483
23m,30,134842,1,10,O,white,OoQCQCoQCo,1,1,2121,773
23m,31,141107,0,10,O,green,oQCQoCoQCo,0,1,853,1910
23m,32,144799,0,10,O,green,QCoCQoCQoC,0,1,771,1170
23m,33,147648,1,10,O,green,OoCQoCQCoQ,1,1,899,942
23m,34,150378,1,10,O,green,OCoQCQoQCo,1,1,1053,591
23m,35,152957,1,10,O,green,OoQCQCoCQo,1,1,2186,738
23m,36,156768,0,10,O,white,oCQCoQCoQC,0,1,1098,897
23m,37,159635,0,10,O,green,oQCoQCQCoQ,0,1,1705,789
23m,38,163037,1,10,O,green,OCoQCoQCQo,1,1,2069,624
23m,39,166611,0,10,O,green,oCQCQoQoCo,0,1,3177,751
23m,40,171449,0,10,O,white,oCQoQCoCQo,0,1,2659,679
23m,1,18823,0,10,O,white,QCoQCoCQoQ,0,1,2407,1193
23m,2,23317,1,10,O,green,OCoQoCQoCQ,1,1,1540,683
23m,3,26451,0,10,O,green,oQCoQCoQCo,0,1,2244,987
23m,4,30644,1,10,O,green,OoCQoQCQoC,1,1,1157,736
23m,5,33452,0,10,O,white,QoCoQCoQCo,0,1,2000,839
23m,6,37204,1,10,O,white,OoCQoCQCoQ,1,1,4611,1059
23m,7,43771,0,10,O,white,QCoQCoCQoQ,0,1,3803,910
23m,8,49396,0,10,O,green,CQoCoQCoQo,0,1,2267,1064
23m,9,53620,1,10,O,green,OQoCQCoQCo,1,1,3283,935
23m,10,58728,0,10,O,white,CoQCoQCoQC,0,1,4181,760
23m,11,64552,0,10,O,white,QoCoCQoQCQ,0,1,2903,926
23m,12,69291,1,10,O,green,OCoQoCQCoQ,1,1,1801,3097
23m,13,75086,1,10,O,white,OoQCQoCoCQ,1,1,3141,881
23m,14,80027,1,10,O,white,OoCQCoQCoQ,1,1,2265,742
23m,15,83922,1,10,O,white,OQoCoQCQoC,1,1,2474,594
23m,16,87877,0,10,O,white,oQCQCoQCoC,0,1,2288,846
23m,17,91906,1,10,O,green,OQoCoQCoQC,1,1,2222,760
23m,18,95797,1,10,O,white,OoQCoQCoCQ,1,1,2828,788
23m,19,100334,0,10,O,white,QoCoQCQoCQ,0,1,3257,668
23m,20,105153,0,10,O,green,CoQCQoQoCQ,0,1,3361,878
23m,21,110290,0,10,O,white,oCQCQoCQoQ,0,1,3485,1126
23m,22,115810,0,10,O,green,CoQCoQoCQo,0,1,2357,913
23m,23,119974,1,10,O,green,OQCoQCoQCo,1,1,1812,750
23m,24,123438,1,10,O,white,OoCQCQoQCo,0,1,1109,1072
23m,25,126531,0,10,O,green,QCoQoCoQCQ,0,1,866,782
23m,26,129103,1,10,O,green,OoQCQoCoCQ,1,1,1260,718
23m,27,131972,1,10,O,white,OCQoCQoCoQ,1,1,2338,1150
23m,28,136386,0,10,O,green,QoCQoCQoCo,0,1,3516,844
23m,29,141640,0,10,O,green,CQoQCoQoCQ,0,1,3323,1249
23m,30,147097,1,10,O,white,OQCoQCoQCo,1,1,3346,765
23m,31,154619,0,10,O,green,CQoCQoCQoC,0,1,1912,932
23m,32,158381,0,10,O,white,QCoQCoCoQC,0,1,2906,815
23m,33,162996,0,10,O,green,QoCoQCQoCQ,0,1,2496,590
23m,34,167023,1,10,O,green,OQoCoQCoQC,1,1,2487,969
23m,35,171370,0,10,O,white,oCQoQCoQCo,0,1,1829,934
23m,36,175056,1,10,O,green,OQCoCoQoQC,1,1,1931,2646
23m,37,180545,1,10,O,white,OQCoCoQoQC,0,1,3928,968
23m,38,186333,1,10,O,white,OoQCQCoQCo,1,1,2555,794
23m,39,190570,0,10,O,green,oQCQoCQoCQ,0,1,1812,842
23m,40,194121,1,10,O,green,OoQCQCoQCo,1,1,1101,619
23m,1,17555,0,10,O,white,CoQoCQCoQC,0,1,3686,883
23m,2,23019,0,10,O,green,QCoQCoQoCQ,0,1,1431,1019
23m,3,26361,1,10,O,white,OoQCoQCQCo,0,1,1308,933
23m,4,29506,1,10,O,green,OoQCoQCQCo,0,1,1243,844
23m,5,32503,1,10,O,green,OoCQCQoQoC,0,1,1217,985
23m,6,35594,1,10,O,white,OCoQoCQCoQ,0,1,966,1523
23m,7,39007,1,10,O,white,OCoQoQCoQC,1,1,2382,772
23m,8,43069,0,10,O,green,CoQCoQCoQC,0,1,958,739
23m,9,45665,0,10,O,green,CoQCQoQCoC,0,1,1916,820
23m,10,49297,1,10,O,green,OCoQoCQCQo,1,1,1224,630
23m,11,52060,0,10,O,green,CQoCoQoCQC,0,1,3041,962
23m,12,56955,0,10,O,green,QoCQoCoQCo,0,1,1490,691
23m,13,60033,1,10,O,white,OCQoQoCQoC,0,1,1615,742
23m,14,63342,1,10,O,green,OQoCoCQoCQ,1,1,1226,907
23m,15,66373,1,10,O,green,OCQoCQoQCo,1,1,4086,1121
23m,16,72517,1,10,O,green,OCQoQoCQoC,1,1,1068,901
23m,17,75406,1,10,O,white,OCoQCoQoQC,0,1,2422,1016
23m,18,79752,0,10,O,green,QCoCoQoCQC,0,1,2744,970
23m,19,84403,0,10,O,white,oCQoQCoCQC,0,1,4028,947
23m,20,90274,0,10,O,green,oCQCQoCoQC,0,1,2296,1119
23m,21,94602,0,10,O,white,oQCoQCoQCo,0,1,2317,813
23m,22,98623,1,10,O,white,OoCQCoQCoQ,0,1,914,812
23m,23,101237,0,10,O,white,CQoCoQCoQo,0,1,2757,863
23m,24,105732,0,10,O,white,QCoQCoQCoC,0,1,3200,1019
23m,25,110857,1,10,O,green,OCQoQCoCoQ,1,1,1166,828
23m,26,113772,0,10,O,white,QCoCoQCoQC,0,1,2066,944
23m,27,117696,1,10,O,green,OQoCQCoQCo,1,1,1827,1182
23m,28,121599,0,10,O,white,QCoCQoCQoC,0,1,1491,1173
23m,29,125149,1,10,O,white,OQCoQCoCQo,1,1,1661,856
23m,30,128573,1,10,O,green,OoCQCoQCQo,1,1,1006,710
23m,31,133600,0,10,O,green,QoCoQCoCQC,0,1,3514,900
23m,32,138935,1,10,O,white,OCQoCoQCQo,1,1,1817,811
23m,33,142451,1,10,O,white,OCoQoCQCoQ,1,1,2511,779
23m,34,146639,0,10,O,white,QCoQCoCQoC,0,1,4469,879
23m,35,152873,0,10,O,white,CQoQCoQCoC,0,1,2872,2212
23m,36,158853,0,10,O,green,CQoCoQCoQC,0,1,1659,761
23m,37,162187,1,10,O,green,OQoCoQCoQC,1,1,1206,929
23m,38,165226,0,10,O,green,CoQCoQCoQC,0,1,1846,815
23m,39,168797,1,10,O,white,OoCQCoQoQC,0,1,2511,800
23m,40,173017,0,10,O,white,QoCQoCQCoC,0,1,3425,779
23m,1,3359,0,10,O,green,CQoQCoQCoQ,0,1,11196,723
23m,2,16156,0,10,O,green,QoCQCoQCoQ,0,1,1459,571
23m,3,19074,0,10,O,white,CoQCoQCoQC,0,1,1188,869
23m,4,22040,0,10,O,white,CQoCQoCoQo,0,1,75324,1078
23m,5,99322,0,10,O,green,QCoQCoCQoQ,0,1,1958,791
23m,6,102980,1,10,O,green,OQoCQCoCQo,1,1,2034,641
23m,7,106547,1,10,O,white,OQCoCoQoCQ,1,1,2417,479
23m,8,110331,1,10,O,white,OCoQoCQoQC,1,1,3449,606
23m,9,115279,0,10,O,green,CQoQCoCoQC,0,1,2055,766
23m,10,119010,0,10,O,white,oQCQCoQoCo,0,1,3590,844
23m,11,124360,1,10,O,white,OCQoCQoCQo,1,1,2363,698
23m,12,128327,1,10,O,white,OQCoCoQCoQ,1,1,1818,710
23m,13,131775,0,10,O,white,oQCQCoCQoC,0,1,3432,935
23m,14,137056,0,10,O,white,QoCoQCoQCo,0,1,2417,997
23m,15,141367,1,10,O,white,OQCoCQoQoC,1,1,2611,695
23m,16,145561,1,10,O,white,OoCQCQoQCo,1,1,2670,758
23m,17,149869,1,10,O,green,OCoQoCQCoQ,1,1,2545,569
23m,18,153888,0,10,O,white,CQoQCoQoCo,0,1,2873,904
23m,19,158552,0,10,O,green,QoCQoCQCoC,0,1,1882,857
23m,20,162176,1,10,O,green,OCQoCQoCoQ,1,1,1278,509
23m,21,164851,0,10,O,green,CQoCQoQCoQ,0,1,2062,670
23m,22,168469,1,10,O,green,OQoCoQCQoC,1,1,1983,800
23m,23,172196,1,10,O,green,OCoQoCQoCQ,1,1,1900,857
23m,24,175858,0,10,O,white,CoQoCQoCQC,0,1,2499,750
23m,25,180024,0,10,O,green,oCQoCQoCQo,0,1,1431,797
23m,26,183173,1,10,O,white,OoCQCoQCQo,1,1,2047,577
23m,27,186691,1,10,O,green,OQCoCQoQCo,1,1,1862,659
23m,28,190101,0,10,O,green,oQCQCoQCoC,0,1,2591,730
23m,29,194315,0,10,O,white,CQoCQoCQoQ,0,1,2851,875
23m,30,198954,1,10,O,green,OCoQoCQoCQ,1,1,2534,533
23m,31,205778,0,10,O,white,QCoQCoQCoC,0,1,2708,1065
23m,32,210468,1,10,O,green,OQoCQCoCQo,1,1,1860,780
23m,33,214007,0,10,O,green,CQoQCoQCoQ,0,1,1195,760
23m,34,216856,0,10,O,green,QCoQCoCoQC,0,1,1404,911
23m,35,220078,1,10,O,green,OoQCQoCQoC,1,1,1431,738
23m,36,223134,1,10,O,green,OQoCQCoCoQ,1,1,2245,611
23m,37,226879,1,10,O,white,OCQoCoQoCQ,1,1,2526,538
23m,38,230901,1,10,O,white,OQoCQoCQCo,1,1,3081,594
23m,39,235545,0,10,O,white,oQCoQCoCQo,0,1,2806,849
23m,40,240131,1,10,O,white,OCQoQCoCoQ,1,1,2439,629
