sub,trial,time,numtargs,size,targchar,targcol,stim,resp,corr,rt1,rt2
2082,1,25021,1,10,O,green,OQoCQoCQoC,1,1,1626,442
2082,2,28000,1,10,O,green,OQCoCoQoCQ,1,1,3889,269
2082,3,33047,1,10,O,green,OQCoCoQoCQ,1,1,1305,74
2082,4,35332,0,10,O,green,QCoCQoQoCQ,0,1,4074,531
2082,5,40845,1,10,O,green,OoCQCQoQoC,1,1,2308,64
2082,6,44112,0,10,O,green,oCQCoQoQCo,0,1,279,3203
2082,7,48495,0,10,O,green,CoQoCQCQoQ,0,1,2682,707
2082,8,52784,0,10,O,green,QCoCQoCQoQ,0,1,4316,1117
2082,9,59125,1,10,O,green,OCoQCoQCQo,1,1,846,392
2082,10,61252,1,10,O,green,OQoCQCoQCo,0,1,1612,1415
2082,11,65176,0,10,O,green,CoQCoQCoQC,0,1,6304,1364
2082,12,73742,1,10,O,green,OQCoCQoQCo,0,1,2395,1062
2082,13,78082,1,10,O,green,OoQCQCoQoC,1,1,3480,2392
2082,14,84861,0,10,O,green,oCQoCQCoQC,0,1,4573,1575
2082,15,91921,1,10,O,green,OCoQoQCQoC,1,1,1456,73
2082,16,94386,0,10,O,green,CoQoQCoQCQ,0,1,5622,1176
2082,17,102056,1,10,O,green,OCQoQCoQCo,1,1,4164,431
2082,18,107538,1,10,O,green,OQCoCQoQCo,1,1,5420,8949
2082,19,122786,0,10,O,green,QoCoCQoCQo,0,1,7088,1976
2082,20,132758,1,10,O,green,OQCoQCoQCo,1,1,2077,213
2082,21,135985,1,10,O,green,OQoCoQCoCQ,1,1,3092,66
2082,22,140026,1,10,O,green,OQCoQoCoQC,1,1,2864,46
2082,23,143880,0,10,O,green,CQoCoQCoQo,0,1,8438,1240
2082,24,154437,0,10,O,green,CoQoQCoQCQ,0,1,5017,1045
2082,25,161387,0,10,O,green,QoCQoCoCQC,0,1,1994,1730
2082,26,166016,0,10,O,green,CQoCQoCoQo,0,1,1523,1192
2082,27,169637,1,10,O,green,OoCQCoQCoQ,1,1,5127,281
2082,28,175949,1,10,O,green,OoCQoQCoCQ,1,1,3339,1785
2082,29,181948,1,10,O,green,OoQCoQCQoC,1,1,1424,965
2082,30,185244,0,10,O,green,CoQCoQoCQC,0,1,3167,693
2082,1,33432,1,10,O,green,OCoQoCQCoQ,1,1,3402,843
2082,2,38566,0,10,O,green,CoQoQCQoCo,0,1,2817,1092
2082,3,43408,1,10,O,green,OQoCQCoQCo,1,1,3832,738
2082,4,48886,1,10,O,green,OQoCQoCQoC,1,1,956,158
2082,5,50901,0,10,O,green,QCoQoCoQCo,0,1,3383,474
2082,6,55681,0,10,O,green,oCQoCQCQoQ,0,1,2635,619
2082,7,59848,1,10,O,green,OQCoCQoQCo,1,1,1894,47
2082,8,62691,0,10,O,green,CoQoCQoCQo,0,1,1416,641
2082,9,65664,0,10,O,green,oCQoCQCQoQ,0,1,1693,1522
2082,10,69767,1,10,O,green,OoQCQoCQoC,1,1,1455,169
2082,11,72297,1,10,O,green,OCQoQoCoQC,1,1,1748,214
2082,12,75173,1,10,O,green,OCoQoCQCQo,1,1,2037,69
2082,13,78168,0,10,O,green,CQoQCoCoQC,0,1,2237,2149
2082,14,83446,1,10,O,green,OCoQoCQoCQ,1,1,772,7106
2082,15,92216,0,10,O,green,oQCQCoCQoQ,0,1,3632,1068
2082,16,97824,0,10,O,green,CoQoCQoCQo,0,1,2584,2584
2082,17,103884,0,10,O,green,CoQoCQCoQC,0,1,2261,1218
2082,18,108257,1,10,O,green,OQoCQoCQoC,1,1,2861,169
2082,19,112245,0,10,O,green,oCQoQCQoCo,0,1,7311,2885
2082,20,123347,0,10,O,green,oQCoQCQCoC,0,1,2558,1287
2082,21,128086,1,10,O,green,OQCoCQoQCo,1,1,1770,183
2082,22,130964,0,10,O,green,QCoQoCoCQo,0,1,5968,760
2082,23,138601,0,10,O,green,oCQoCQoCQC,0,1,2942,1353
2082,24,143805,0,10,O,green,QCoCQoQCoC,0,1,2789,641
2082,25,148136,1,10,O,green,OQCoQCoQCo,1,1,1360,806
2082,26,151214,1,10,O,green,OQCoCQoCQo,1,1,806,1171
2082,27,154095,1,10,O,green,OoQCoQCoCQ,1,1,1486,26
2082,28,156519,1,10,O,green,OQoCQoCoCQ,1,1,1475,50
2082,29,158939,0,10,O,green,QoCQoCoCQC,0,1,1177,484
2082,30,161488,0,10,O,green,QCoQoCoQCQ,0,1,1144,925
2082,31,169662,0,10,O,green,QoCoQCQoCQ,0,1,1465,506
2082,32,172549,0,10,O,green,CoQoCQCQoQ,0,1,1199,674
2082,33,175373,1,10,O,green,OQoCQCoQCo,1,1,954,576
2082,34,177809,1,10,O,green,OoQCQoCoCQ,1,1,725,961
2082,35,180387,1,10,O,green,OoCQoCQoQC,1,1,1135,43
2082,36,182468,1,10,O,green,OCQoCQoQoC,1,1,1131,32
2082,37,184580,0,10,O,green,CQoCQoQCoQ,0,1,1284,663
2082,38,187432,1,10,O,green,OQoCQCoCQo,1,1,945,1299
2082,39,190588,0,10,O,green,QCoCQoQoCQ,0,1,2116,980
2082,40,194592,1,10,O,green,OCoQCoQCoQ,1,1,1145,777
2082,1,38411,0,10,O,green,CoQCoQoQCo,0,1,1137,407
2082,2,40877,0,10,O,green,oQCoCQoQCo,0,1,962,415
2082,3,43142,1,10,O,green,OoQCQoCQoC,1,1,519,567
2082,4,45117,1,10,O,green,OCQoQCoQCo,1,1,988,234
2082,5,47256,1,10,O,green,OoCQCoQCQo,1,1,1367,60
2082,6,49601,0,10,O,green,oQCQoCQCoQ,0,1,1525,488
2082,7,52501,0,10,O,green,QoCQoCQCoC,0,1,2238,445
2082,8,56096,1,10,O,green,OQoCoQCQCo,1,1,653,165
2082,9,57808,0,10,O,green,QoCQCoQoCQ,0,1,1645,490
2082,10,60856,1,10,O,green,OoCQCoQoCQ,1,1,617,1851
2082,11,64224,0,10,O,green,CQoQoCQoCo,0,1,895,458
2082,12,66481,0,10,O,green,oCQCoQCoQo,0,1,684,632
2082,13,68735,1,10,O,green,OoCQoCQoCQ,1,1,757,47
2082,14,70424,0,10,O,green,CQoQCoQoCo,0,1,1393,462
2082,15,73196,1,10,O,green,OoQCoCQoQC,1,1,944,44
2082,16,75106,1,10,O,green,OQoCQoCQoC,1,1,676,514
2082,17,77163,1,10,O,green,OoQCQoCoCQ,1,1,765,59
2082,18,78917,0,10,O,green,QCoQCoCQoC,0,1,811,591
2082,19,81222,1,10,O,green,OoQCQCoCQo,8,0,623,2462
2082,20,85210,1,10,O,green,OQCoCQoQCo,1,1,1011,281
2082,21,87407,0,10,O,green,CoQoCQoCQC,0,1,927,519
2082,22,89758,1,10,O,green,OQCoQCoQoC,1,1,3570,45
2082,23,94263,1,10,O,green,OCoQoCQCoQ,1,1,2359,1675
2082,24,99210,0,10,O,green,oQCoQCQCoQ,0,1,2880,464
2082,25,103470,1,10,O,green,OoQCQCoCQo,1,1,1702,19
2082,26,106092,1,10,O,green,OoQCoQCoQC,1,1,1392,187
2082,27,108571,1,10,O,green,OoQCQCoQCo,1,1,3220,79
2082,28,112758,1,10,O,green,OCQoCQoQoC,1,1,2852,519
2082,29,117000,0,10,O,green,QoCoQCoQCQ,0,1,1918,505
2082,30,120331,0,10,O,green,CoQCoQCoQC,0,1,817,881
2082,31,125057,0,10,O,green,oQCoCQCoQC,0,1,692,503
2082,32,127178,0,10,O,green,CQoQoCQoCo,0,1,668,1004
2082,33,129757,0,10,O,green,QoCoQCoQCo,0,1,2097,1715
2082,34,134457,0,10,O,green,QCoCQoCQoC,0,1,697,4440
2082,35,140494,0,10,O,green,QoCQoCQoCo,0,1,1840,502
2082,36,143726,0,10,O,green,oQCQCoQCoQ,0,1,2325,606
2082,37,147563,0,10,O,green,CoQoQCQoCQ,0,1,3697,498
2082,38,152681,1,10,O,green,OoQCQoCoCQ,1,1,1217,660
2082,39,155469,1,10,O,green,OQCoCQoCQo,1,1,4452,525
2082,40,161334,1,10,O,green,OQoCQoCQoC,1,1,1054,597
2082,1,44829,1,10,O,green,OQCoQoCoQC,1,1,2759,1792
2082,2,50301,1,10,O,green,OCoQCoQCoQ,1,1,788,1290
2082,3,53319,1,10,O,green,OoQCQoCQCo,1,1,1251,42
2082,4,55502,0,10,O,green,oQCoCQoCQo,0,1,4225,587
2082,5,61209,0,10,O,green,oCQCoQoCQC,0,1,2470,495
2082,6,65097,0,10,O,green,CoQoQCQoCo,0,1,3091,404
2082,7,69486,0,10,O,green,oCQCoQoCQo,0,1,1447,486
2082,8,72337,0,10,O,green,CQoQCoCQoC,0,1,792,447
2082,9,74485,1,10,O,green,OoCQCoQoQC,1,1,2483,41
2082,10,77931,1,10,O,green,OCQoCQoQoC,1,1,1796,977
2082,11,81600,0,10,O,green,QCoCQoQCoC,0,1,1337,470
2082,12,84295,1,10,O,green,OoCQCoQoQC,1,1,782,158
2082,13,86151,1,10,O,green,OCoQoCQCoQ,1,1,854,46
2082,14,87945,1,10,O,green,OQCoCQoCQo,1,1,1815,56
2082,15,90702,1,10,O,green,OQoCoQCQCo,1,1,979,128
2082,16,92701,0,10,O,green,QoCQoCoQCQ,0,1,729,407
2082,17,94776,0,10,O,green,CoQoCQCoQo,0,1,643,421
2082,18,96747,0,10,O,green,QoCQCoQCoQ,0,1,645,451
2082,19,98760,1,10,O,green,OoCQCoQCoQ,1,1,635,951
2082,20,101270,0,10,O,green,QoCoQCQoCo,0,1,2490,450
2082,21,105113,1,10,O,green,OCoQCoQCoQ,1,1,952,506
2082,22,107492,0,10,O,green,QoCQoCQoCo,0,1,877,915
2082,23,110198,0,10,O,green,CoQCoQCoQC,0,1,1030,851
2082,24,112976,0,10,O,green,CQoCQoQoCo,0,1,1194,401
2082,25,115478,0,10,O,green,CQoCQoCQoC,0,1,3701,537
2082,26,120634,1,10,O,green,OoCQCoQoCQ,1,1,684,573
2082,27,122790,0,10,O,green,CQoCQoCQoC,0,1,959,470
2082,28,125130,0,10,O,green,oCQCoQoQCQ,0,1,3189,467
2082,29,129681,0,10,O,green,CoQCQoQCoQ,0,1,2185,427
2082,30,133239,1,10,O,green,OQoCoQCQoC,1,1,1258,252
2082,31,137749,1,10,O,green,OoCQoCQoCQ,1,1,1070,162
2082,32,139941,1,10,O,green,OoQCQCoCQo,1,1,743,724
2082,33,142311,1,10,O,green,OoQCQCoCoQ,1,1,744,147
2082,34,144090,1,10,O,green,OQCoQCoCoQ,1,1,1488,60
2082,35,146525,0,10,O,green,CQoQoCQoCQ,0,1,2609,535
2082,36,150591,0,10,O,green,CQoCoQoQCQ,0,1,1012,412
2082,37,152906,0,10,O,green,CQoCoQCQoC,0,1,1955,532
2082,38,156292,1,10,O,green,OQCoQCoQCo,1,1,697,20
2082,39,157931,1,10,O,green,OQoCQoCQoC,1,1,746,59
2082,40,159617,1,10,O,green,OoQCoCQoCQ,1,1,1537,142
