sub,trial,time,numtargs,size,targchar,targcol,stim,resp,corr,rt1,rt2
2104,1,22758,0,10,O,white,oCQoCQCoQC,0,1,4077,1144
2104,2,28866,0,10,O,white,oQCoCQCQoC,0,1,3498,758
2104,3,34015,0,10,O,green,QCoQoCoQCQ,0,1,3101,677
2104,4,38716,0,10,O,green,oQCoCQCQoC,0,1,2891,545
2104,5,43051,0,10,O,green,QoCQoCoCQo,0,1,3856,1091
2104,6,48876,1,10,O,green,OQoCoQCQoC,1,1,1876,1312
2104,7,52949,1,10,O,green,OoCQCoQCoQ,1,1,4492,590
2104,8,58918,1,10,O,white,OQCoCQoCQo,1,1,1966,931
2104,9,62705,1,10,O,green,OoQCQoCoCQ,1,1,2440,1562
2104,10,67594,1,10,O,green,OCQoCoQCoQ,0,1,3745,1127
2104,11,73356,0,10,O,green,oQCQoCoQCQ,0,1,4376,862
2104,12,79480,0,10,O,white,QCoQoCoQCo,0,1,4627,1059
2104,13,86074,1,10,O,white,OCQoCQoQCo,1,1,2143,4013
2104,14,93120,0,10,O,white,CQoQCoQoCo,0,1,5015,957
2104,15,99991,0,10,O,green,CQoQCoCoQC,0,1,6300,1891
2104,16,109064,1,10,O,green,OQCoCQoQCo,0,1,6323,3027
2104,17,119345,1,10,O,white,OCQoQCoCQo,1,1,1867,2758
2104,18,124888,0,10,O,white,CoQCoQCoQC,0,1,8432,3009
2104,19,137225,1,10,O,white,OCoQCoQCoQ,1,1,3901,1312
2104,20,143324,1,10,O,white,OoQCQCoQCo,1,1,4458,1460
2104,21,150155,0,10,O,white,CQoQoCoCQC,0,1,5895,1273
2104,22,158202,0,10,O,green,CoQoCQoCQo,0,1,8120,4537
2104,23,171762,1,10,O,green,OoQCoQCQoC,1,1,3138,1466
2104,24,177271,0,10,O,white,CoQoCQCoQC,0,1,8680,1828
2104,25,188671,0,10,O,white,CQoQCoQCoC,0,1,8226,3313
2104,1,28640,1,10,O,green,OQCoQCoQCo,1,1,6970,2739
2104,2,39240,1,10,O,white,OCoQCQoCoQ,1,1,2472,1296
2104,3,43916,1,10,O,green,OCQoCoQCoQ,1,1,2219,836
2104,4,47897,1,10,O,white,OoCQoCQoQC,1,1,3847,1323
2104,5,53987,1,10,O,green,OCoQoQCQCo,1,1,3082,451
2104,6,58407,1,10,O,white,OCoQCoQCoQ,1,1,2963,1695
2104,7,63971,0,10,O,white,oCQCoQCoQC,0,1,6185,974
2104,8,72016,0,10,O,green,CQoQCoCoQo,0,1,6497,1114
2104,9,80506,0,10,O,green,QCoQCoCQoQ,0,1,5444,1987
2104,10,88820,1,10,O,white,OQCoQCoCQo,1,1,2470,478
2104,11,92686,0,10,O,green,QCoCQoCQoQ,0,1,10450,883
2104,12,104898,0,10,O,green,oCQCQoQCoQ,0,1,6310,732
2104,13,112817,1,10,O,green,OQCoCoQoQC,1,1,4691,526
2104,14,118934,1,10,O,green,OQCoCQoQCo,1,1,1214,453
2104,15,121491,1,10,O,green,OCoQoCQCoQ,1,1,1564,486
2104,16,124428,0,10,O,white,CoQoCQCoQC,0,1,3778,381
2104,17,129481,0,10,O,green,CoQoQCQoCo,0,1,7101,439
2104,18,137899,0,10,O,white,oCQoQCQCoQ,0,1,8323,408
2104,19,147525,1,10,O,green,OQCoQCoQCo,1,1,4613,474
2104,20,153499,0,10,O,green,CQoQoCoQCo,0,1,4954,481
2104,21,159859,0,10,O,white,QoCoQCQoCQ,0,1,6701,431
2104,22,167901,1,10,O,white,OQoCoQCQCo,1,1,2616,1355
2104,23,172785,1,10,O,white,OQCoCQoCoQ,1,1,6513,491
2104,24,180674,0,10,O,white,CQoQCoCQoC,0,1,8060,547
2104,25,190203,0,10,O,white,QCoQCoCQoQ,0,1,3955,1174
2104,26,196256,1,10,O,white,OoCQoCQoQC,1,1,1452,1187
2104,27,199782,1,10,O,green,OoCQCoQoCQ,1,1,4239,439
2104,1,19573,1,10,O,white,OCQoCQoQCo,1,1,3971,2899
2104,2,27362,1,10,O,white,OoQCQCoQCo,1,1,2283,978
2104,3,31541,1,10,O,green,OCoQoCQCQo,1,1,2146,628
2104,4,35260,0,10,O,green,CQoCoQoCQC,0,1,2486,458
2104,5,39110,1,10,O,white,OoQCoQCQCo,1,1,1979,496
2104,6,42514,0,10,O,white,oQCoCQCoQC,0,1,2877,758
2104,7,47078,0,10,O,green,CQoQCoQCoQ,0,1,9219,394
2104,8,57573,1,10,O,white,OoCQCQoQCo,0,1,9787,908
2104,9,69159,0,10,O,green,oCQoQCQCoQ,0,1,2056,363
2104,10,72463,0,10,O,white,CoQoCQCoQC,0,1,10969,395
2104,11,84730,1,10,O,green,OQCoCQoCQo,1,1,5814,463
2104,12,91898,0,10,O,green,oCQoCQoCQC,0,1,8991,361
2104,13,102182,1,10,O,green,OoCQCoQoCQ,1,1,3666,461
2104,14,107197,1,10,O,green,OQoCoQCoQC,1,1,6226,1567
2104,15,115868,0,10,O,green,QoCoCQoCQC,0,1,9952,472
2104,16,127193,1,10,O,green,OoCQoQCQoC,1,1,3903,470
2104,17,132459,1,10,O,white,OQoCoQCoCQ,1,1,5906,499
2104,18,139775,0,10,O,white,oCQoQCoQCQ,0,1,6716,520
2104,19,147931,1,10,O,white,OoQCQoCoQC,1,1,6526,4684
2104,20,160056,0,10,O,white,CoQoQCoCQC,0,1,4173,463
2104,21,165618,0,10,O,white,oQCQCoCQoC,0,1,7864,437
2104,22,174830,0,10,O,white,QCoCQoCoQC,0,1,10048,363
2104,23,186135,1,10,O,green,OCoQoCQCoQ,1,1,4869,451
2104,24,192334,0,10,O,white,oQCoQCQoCo,0,1,3270,373
