sub,trial,time,numtargs,size,targchar,targcol,stim,resp,corr,rt1,rt2
2102,1,43333,1,10,O,green,OQCoQCoCQo,1,1,3279,2014
2102,2,49509,0,10,O,green,CQoQoCoQCQ,0,1,4113,1657
2102,3,56194,1,10,O,green,OCQoCQoCoQ,1,1,1324,4238
2102,4,62644,1,10,O,green,OoQCoCQCoQ,1,1,1863,4479
2102,5,69878,1,10,O,green,OQoCoQCoQC,1,1,1354,3927
2102,6,76050,1,10,O,green,OCQoQoCQCo,1,1,1137,1424
2102,7,79495,0,10,O,green,oQCoCQCoQo,0,1,2943,1541
2102,8,84872,0,10,O,green,QCoCQoQCoC,0,1,3348,1929
2102,9,91082,0,10,O,green,CoQoQCoQCQ,0,1,4750,591
2102,10,97299,1,10,O,green,OCoQCQoQCo,1,1,1942,768
2102,11,100925,0,10,O,green,CQoCQoQCoC,0,1,5440,1417
2102,12,108667,1,10,O,green,OoQCoCQoQC,1,1,3439,1477
2102,13,114489,1,10,O,green,OCoQCoQCoQ,1,1,1670,1987
2102,14,119052,0,10,O,green,CoQoCQoCQo,0,1,5525,1345
2102,15,126808,0,10,O,green,CQoCQoQoCQ,0,1,7528,1378
2102,16,136590,0,10,O,green,QCoCQoCQoC,0,1,4511,1087
2102,17,143077,1,10,O,green,OCoQoCQoQC,1,1,1342,774
2102,18,146077,0,10,O,green,QoCoQCoQCo,0,1,3879,1408
2102,19,152249,0,10,O,green,QoCQoCoQCQ,0,1,4204,2062
2102,20,159401,0,10,O,green,QoCoQCoCQo,0,1,5114,995
2102,21,166429,1,10,O,green,OoQCoQCQoC,1,1,1562,590
2102,22,169497,1,10,O,green,OQCoQoCQCo,1,1,1113,567
2102,23,172079,0,10,O,green,QoCQCoCoQo,0,1,3995,1290
2102,24,178260,0,10,O,green,oQCQoCoCQC,0,1,8153,7300
2102,25,194618,0,10,O,green,QoCoQCQCoQ,0,1,9429,1275
2102,26,206255,0,10,O,green,oCQCoQoCQo,0,1,2486,2874
2102,27,212504,1,10,O,green,OoQCQoCoQC,1,1,3013,836
2102,1,17757,0,10,O,green,QCoQoCQoCo,0,1,8924,3332
2102,2,30921,0,10,O,green,QCoCQoQoCo,0,1,7842,1544
2102,3,41208,1,10,O,green,OQCoQCoCQo,1,1,5738,2389
2102,4,50237,0,10,O,green,QoCQCoCQoQ,0,1,4649,2618
2102,5,58387,1,10,O,green,OoCQoQCoQC,1,1,3585,1299
2102,6,64185,1,10,O,green,OCQoQoCoQC,1,1,2509,685
2102,7,68280,1,10,O,green,OCoQoCQoQC,1,1,2082,562
2102,8,71806,1,10,O,green,OoCQoCQCoQ,1,1,4814,3691
2102,9,81205,1,10,O,green,OCQoQCoQoC,1,1,7952,4770
2102,10,94822,0,10,O,green,CoQoCQoQCo,0,1,6378,4265
2102,11,106341,0,10,O,green,oCQoCQoQCo,0,1,5165,891
2102,12,113275,1,10,O,green,OCoQCoQoCQ,1,1,1400,1326
2102,13,116935,0,10,O,green,oCQoQCQCoQ,0,1,4820,1598
2102,14,124259,0,10,O,green,oCQoQCoQCo,0,1,4056,891
2102,15,130114,0,10,O,green,CoQoCQoCQC,0,1,5012,2487
2102,16,138500,0,10,O,green,CQoQCoCQoC,0,1,9430,1382
2102,17,150224,1,10,O,green,OQoCQoCQoC,1,1,6240,3679
2102,18,161026,0,10,O,green,oQCQCoQCoQ,0,1,3469,1192
2102,19,166580,1,10,O,green,OCoQCQoQoC,1,1,5187,1660
2102,20,174346,1,10,O,green,OQCoQoCQoC,1,1,2505,4452
2102,21,182212,0,10,O,green,CoQoCQoCQo,0,1,4868,1620
2102,22,189588,1,10,O,green,OQCoQoCQoC,1,1,2962,1402
2102,1,32854,0,10,O,green,QoCQCoCoQC,0,1,6185,569
2102,2,40512,1,10,O,green,OoQCQoCQoC,1,1,2426,995
2102,3,44814,0,10,O,green,oQCoQCoCQo,0,1,3000,711
2102,4,49447,0,10,O,green,oQCoQCQoCQ,0,1,2952,488
2102,5,53784,0,10,O,green,oQCQoCQoCo,0,1,4163,428
2102,6,59286,1,10,O,green,OoQCoQCoCQ,1,1,1468,2211
2102,7,63849,1,10,O,green,OoCQCQoCQo,1,1,2926,458
2102,8,68144,0,10,O,green,oCQoQCQoCQ,0,1,4879,520
2102,9,74454,1,10,O,green,OQoCoQCQoC,1,1,3661,510
2102,10,79518,1,10,O,green,OCoQCoQoCQ,1,1,2303,450
2102,11,83176,1,10,O,green,OoCQCoQoCQ,1,1,5693,968
2102,12,90723,1,10,O,green,OoQCQCoQCo,1,1,1572,453
2102,13,93644,0,10,O,green,CQoQoCoCQC,0,1,7877,572
2102,14,102998,1,10,O,green,OCoQCoQCoQ,1,1,2060,754
2102,15,106715,1,10,O,green,OoCQCQoCQo,1,1,1434,929
2102,16,109958,0,10,O,green,CQoCQoQCoC,0,1,4489,646
2102,17,115987,1,10,O,green,OQCoCQoQCo,1,1,868,440
2102,18,118211,1,10,O,green,OQCoQCoQoC,1,1,2534,774
2102,19,122411,0,10,O,green,QCoQoCoQCo,0,1,12344,1029
2102,20,136661,0,10,O,green,CoQoCQCQoC,0,1,11878,511
2102,21,149961,1,10,O,green,OCoQCoQoQC,1,1,5334,317
2102,22,156480,1,10,O,green,OQoCoQCoCQ,1,1,5805,1032
2102,23,164224,0,10,O,green,QoCQoCoCQo,0,1,6541,936
2102,24,172588,1,10,O,green,OoQCoQCoCQ,1,1,3544,871
2102,25,177909,1,10,O,green,OQoCoCQoCQ,1,1,2166,442
2102,26,181448,1,10,O,green,OCoQCQoQCo,1,1,3692,1536
2102,27,187568,1,10,O,green,OoQCoQCQoC,1,1,1372,445
2102,28,190300,0,10,O,green,oCQCQoQCoQ,0,1,3440,481
2102,29,195127,1,10,O,green,OCoQCoQoQC,1,1,1746,503
2102,30,198273,0,10,O,green,oQCoCQCQoQ,0,1,978,421
2102,1,39441,1,10,O,green,OCoQCoQCoQ,0,1,3735,1386
2102,2,45462,1,10,O,green,OoCQCoQoQC,1,1,2091,1495
2102,3,49935,0,10,O,green,oCQCoQoQCQ,0,1,4783,501
2102,4,56167,1,10,O,green,OQoCQoCQCo,1,1,2421,554
2102,5,60065,0,10,O,green,oQCoQCoCQC,0,1,5501,455
2102,6,66923,0,10,O,green,oQCQCoQoCQ,0,1,5379,667
2102,7,73881,0,10,O,green,CQoQoCQoCo,0,1,3326,485
2102,8,78586,1,10,O,green,OCQoCQoQoC,1,1,1661,1521
2102,9,82680,1,10,O,green,OCoQoCQCQo,1,1,2945,1072
2102,10,87613,1,10,O,green,OoQCQoCoQC,1,1,2019,417
2102,11,90967,0,10,O,green,QCoQCoQoCo,0,1,5995,389
2102,12,98232,0,10,O,green,oQCoQCQoCo,0,1,1477,393
2102,13,100993,0,10,O,green,oQCQoCoQCQ,0,1,4366,424
2102,14,106667,1,10,O,green,OQoCoQCQoC,1,1,2982,388
2102,15,110920,0,10,O,green,CoQCoQCQoQ,0,1,6213,626
2102,16,118658,1,10,O,green,OCoQoQCQoC,1,1,4062,407
2102,17,124026,0,10,O,green,CoQCQoQCoC,0,1,4146,506
2102,18,129576,0,10,O,green,CoQCoQoQCQ,0,1,5412,398
2102,19,136310,1,10,O,green,OCoQoCQCoQ,1,1,2325,402
2102,20,139974,1,10,O,green,OQoCoQCQoC,1,1,2031,141
2102,21,143037,1,10,O,green,OoCQCQoQoC,1,1,4449,216
2102,22,148597,1,10,O,green,OCQoQCoQCo,1,1,2737,3374
2102,23,155635,0,10,O,green,oCQCQoCQoC,0,1,2435,408
2102,24,159367,0,10,O,green,QoCoQCQoCQ,0,1,2882,531
2102,25,163683,1,10,O,green,OQoCoQCoQC,1,1,2311,385
2102,26,167287,0,10,O,green,oCQCoQoCQC,0,1,1897,479
2102,27,170558,0,10,O,green,CQoQCoQoCo,0,1,6928,405
2102,28,178789,0,10,O,green,QoCoQCoCQC,0,1,4707,457
2102,29,184887,1,10,O,green,OoCQCoQoQC,1,1,4547,465
2102,30,190788,0,10,O,green,QCoQCoQoCo,0,1,3973,421
2102,31,200148,1,10,O,green,OCoQoCQoQC,1,1,5736,1986
2102,32,208773,0,10,O,green,CQoQCoCoQo,0,1,2049,3702
